user_id,age,gender,attention,block_number,trial_number,trial_type,conditions,p_inspection,inspection,fine_size,profitable_side,points_right,points_left,exchange_ratio,basic_payment,true_side,choice,trial_payoff,alternative_payoff,choice_correct,rt_choice,block_errors,block_payoff,final_payoff,date,time
5ec22961a5533967a888db87,46,male,1,1,1,Clear_not_profit_side,no_enforcement2,0,0,-,right,9,16,500,1.45,left,right,2,1,0,0.807,9,150,307,18-05-2020,17:57:3
5ec22961a5533967a888db87,46,male,0,1,1,Ambigous_left,low_enforcement,10,0,-,left,11,14,500,1.45,left,right,1,20,0,0.728,9,708,999,18-05-2020,18:28:19
5ec22961a5533967a888db87,46,male,1,1,2,Clear_not_profit_side,no_enforcement2,0,0,-,right,9,16,500,1.45,left,left,1,2,1,0.803,9,150,307,18-05-2020,17:57:3
5ec22961a5533967a888db87,46,male,0,1,2,Clear_not_profit_side,low_enforcement,10,0,-,left,16,9,500,1.45,right,right,1,20,1,0.141,9,708,999,18-05-2020,18:28:19
5ec22961a5533967a888db87,46,male,1,1,3,Ambigous_left,no_enforcement2,0,0,-,right,11,14,500,1.45,left,right,2,1,0,0.331,9,150,307,18-05-2020,17:57:3
5ec22961a5533967a888db87,46,male,0,1,3,Clear_not_profit_side,low_enforcement,10,0,-,left,16,9,500,1.45,right,right,1,20,1,0.121,9,708,999,18-05-2020,18:28:19
5ec22961a5533967a888db87,46,male,1,1,4,Ambigous_left,no_enforcement2,0,0,-,right,11,14,500,1.45,left,left,1,2,1,0.26,9,150,307,18-05-2020,17:57:3
5ec22961a5533967a888db87,46,male,0,1,4,Ambigous_right,low_enforcement,10,0,-,left,14,11,500,1.45,right,right,1,20,1,0.135,9,708,999,18-05-2020,18:28:19
5ec22961a5533967a888db87,46,male,1,1,5,Clear_not_profit_side,no_enforcement2,0,0,-,right,9,16,500,1.45,left,left,1,2,1,0.215,9,150,307,18-05-2020,17:57:3
5ec22961a5533967a888db87,46,male,0,1,5,Ambigous_right,low_enforcement,10,0,-,left,14,11,500,1.45,right,right,1,20,1,0.101,9,708,999,18-05-2020,18:28:19
5ec22961a5533967a888db87,46,male,1,1,6,Clear_profit_side,no_enforcement2,0,0,-,right,16,9,500,1.45,right,right,2,1,1,0.22,9,150,307,18-05-2020,17:57:3
5ec22961a5533967a888db87,46,male,0,1,6,Clear_profit_side,low_enforcement,10,0,-,left,9,16,500,1.45,left,left,20,1,1,0.23,9,708,999,18-05-2020,18:28:19
5ec22961a5533967a888db87,46,male,1,1,7,Clear_not_profit_side,no_enforcement2,0,0,-,right,9,16,500,1.45,left,left,1,2,1,0.19,9,150,307,18-05-2020,17:57:3
5ec22961a5533967a888db87,46,male,0,1,7,Ambigous_right,low_enforcement,10,1,180,left,14,11,500,1.45,right,right,1,-160,1,0.152,9,708,999,18-05-2020,18:28:19
5ec22961a5533967a888db87,46,male,1,1,8,Ambigous_left,no_enforcement2,0,0,-,right,11,14,500,1.45,left,right,2,1,0,0.311,9,150,307,18-05-2020,17:57:3
5ec22961a5533967a888db87,46,male,0,1,8,Clear_not_profit_side,low_enforcement,10,0,-,left,16,9,500,1.45,right,right,1,20,1,0.247,9,708,999,18-05-2020,18:28:19
5ec22961a5533967a888db87,46,male,1,1,9,Clear_profit_side,no_enforcement2,0,0,-,right,16,9,500,1.45,right,right,2,1,1,0.182,9,150,307,18-05-2020,17:57:3
5ec22961a5533967a888db87,46,male,0,1,9,Clear_not_profit_side,low_enforcement,10,0,-,left,16,9,500,1.45,right,right,1,20,1,0.15,9,708,999,18-05-2020,18:28:19
5ec22961a5533967a888db87,46,male,1,1,10,Ambigous_left,no_enforcement2,0,0,-,right,11,14,500,1.45,left,left,1,2,1,0.195,9,150,307,18-05-2020,17:57:3
5ec22961a5533967a888db87,46,male,0,1,10,Clear_not_profit_side,low_enforcement,10,0,-,left,16,9,500,1.45,right,right,1,20,1,0.141,9,708,999,18-05-2020,18:28:19
5ec22961a5533967a888db87,46,male,1,1,11,Ambigous_right,no_enforcement2,0,0,-,right,14,11,500,1.45,right,right,2,1,1,0.219,9,150,307,18-05-2020,17:57:3
5ec22961a5533967a888db87,46,male,0,1,11,Clear_profit_side,low_enforcement,10,0,-,left,9,16,500,1.45,left,left,20,1,1,0.216,9,708,999,18-05-2020,18:28:19
5ec22961a5533967a888db87,46,male,1,1,12,Ambigous_left,no_enforcement2,0,0,-,right,11,14,500,1.45,left,left,1,2,1,0.202,9,150,307,18-05-2020,17:57:3
5ec22961a5533967a888db87,46,male,0,1,12,Clear_not_profit_side,low_enforcement,10,0,-,left,16,9,500,1.45,right,right,1,20,1,0.171,9,708,999,18-05-2020,18:28:19
5ec22961a5533967a888db87,46,male,1,1,13,Ambigous_left,no_enforcement2,0,0,-,right,11,14,500,1.45,left,right,2,1,0,0.265,9,150,307,18-05-2020,17:57:3
5ec22961a5533967a888db87,46,male,0,1,13,Ambigous_left,low_enforcement,10,0,-,left,11,14,500,1.45,left,right,1,20,0,0.31,9,708,999,18-05-2020,18:28:19
5ec22961a5533967a888db87,46,male,1,1,14,Ambigous_left,no_enforcement2,0,0,-,right,11,14,500,1.45,left,left,1,2,1,0.221,9,150,307,18-05-2020,17:57:3
5ec22961a5533967a888db87,46,male,0,1,14,Ambigous_left,low_enforcement,10,0,-,left,11,14,500,1.45,left,right,1,20,0,0.234,9,708,999,18-05-2020,18:28:19
5ec22961a5533967a888db87,46,male,1,1,15,Clear_not_profit_side,no_enforcement2,0,0,-,right,9,16,500,1.45,left,left,1,2,1,0.201,9,150,307,18-05-2020,17:57:3
5ec22961a5533967a888db87,46,male,0,1,15,Clear_not_profit_side,low_enforcement,10,1,180,left,16,9,500,1.45,right,right,1,-160,1,0.134,9,708,999,18-05-2020,18:28:19
5ec22961a5533967a888db87,46,male,1,1,16,Ambigous_left,no_enforcement2,0,0,-,right,11,14,500,1.45,left,left,1,2,1,0.267,9,150,307,18-05-2020,17:57:3
5ec22961a5533967a888db87,46,male,0,1,16,Clear_not_profit_side,low_enforcement,10,0,-,left,16,9,500,1.45,right,right,1,20,1,0.166,9,708,999,18-05-2020,18:28:19
5ec22961a5533967a888db87,46,male,1,1,17,Ambigous_right,no_enforcement2,0,0,-,right,14,11,500,1.45,right,right,2,1,1,0.225,9,150,307,18-05-2020,17:57:3
5ec22961a5533967a888db87,46,male,0,1,17,Ambigous_right,low_enforcement,10,0,-,left,14,11,500,1.45,right,right,1,20,1,0.135,9,708,999,18-05-2020,18:28:19
5ec22961a5533967a888db87,46,male,1,1,18,Ambigous_right,no_enforcement2,0,0,-,right,14,11,500,1.45,right,right,2,1,1,0.16,9,150,307,18-05-2020,17:57:3
5ec22961a5533967a888db87,46,male,0,1,18,Clear_profit_side,low_enforcement,10,0,-,left,9,16,500,1.45,left,right,1,20,0,0.298,9,708,999,18-05-2020,18:28:19
5ec22961a5533967a888db87,46,male,1,1,19,Clear_not_profit_side,no_enforcement2,0,0,-,right,9,16,500,1.45,left,left,1,2,1,0.202,9,150,307,18-05-2020,17:57:3
5ec22961a5533967a888db87,46,male,0,1,19,Clear_profit_side,low_enforcement,10,0,-,left,9,16,500,1.45,left,left,20,1,1,0.206,9,708,999,18-05-2020,18:28:19
5ec22961a5533967a888db87,46,male,1,1,20,Clear_not_profit_side,no_enforcement2,0,0,-,right,9,16,500,1.45,left,left,1,2,1,0.159,9,150,307,18-05-2020,17:57:3
5ec22961a5533967a888db87,46,male,0,1,20,Ambigous_right,low_enforcement,10,0,-,left,14,11,500,1.45,right,right,1,20,1,0.182,9,708,999,18-05-2020,18:28:19
5ec22961a5533967a888db87,46,male,1,1,21,Ambigous_left,no_enforcement2,0,0,-,right,11,14,500,1.45,left,left,1,2,1,0.177,9,150,307,18-05-2020,17:57:3
5ec22961a5533967a888db87,46,male,0,1,21,Clear_profit_side,low_enforcement,10,0,-,left,9,16,500,1.45,left,left,20,1,1,0.165,9,708,999,18-05-2020,18:28:19
5ec22961a5533967a888db87,46,male,1,1,22,Clear_not_profit_side,no_enforcement2,0,0,-,right,9,16,500,1.45,left,left,1,2,1,0.207,9,150,307,18-05-2020,17:57:3
5ec22961a5533967a888db87,46,male,0,1,22,Clear_not_profit_side,low_enforcement,10,0,-,left,16,9,500,1.45,right,right,1,20,1,0.187,9,708,999,18-05-2020,18:28:19
5ec22961a5533967a888db87,46,male,1,1,23,Clear_not_profit_side,no_enforcement2,0,0,-,right,9,16,500,1.45,left,left,1,2,1,0.183,9,150,307,18-05-2020,17:57:3
5ec22961a5533967a888db87,46,male,0,1,23,Ambigous_left,low_enforcement,10,0,-,left,11,14,500,1.45,left,left,20,1,1,0.174,9,708,999,18-05-2020,18:28:19
5ec22961a5533967a888db87,46,male,1,1,24,Ambigous_left,no_enforcement2,0,0,-,right,11,14,500,1.45,left,left,1,2,1,0.206,9,150,307,18-05-2020,17:57:3
5ec22961a5533967a888db87,46,male,0,1,24,Clear_profit_side,low_enforcement,10,0,-,left,9,16,500,1.45,left,left,20,1,1,0.132,9,708,999,18-05-2020,18:28:19
5ec22961a5533967a888db87,46,male,1,1,25,Clear_not_profit_side,no_enforcement2,0,0,-,right,9,16,500,1.45,left,left,1,2,1,0.177,9,150,307,18-05-2020,17:57:3
5ec22961a5533967a888db87,46,male,0,1,25,Clear_not_profit_side,low_enforcement,10,0,-,left,16,9,500,1.45,right,right,1,20,1,0.176,9,708,999,18-05-2020,18:28:19
5ec22961a5533967a888db87,46,male,1,1,26,Clear_not_profit_side,no_enforcement2,0,0,-,right,9,16,500,1.45,left,left,1,2,1,0.157,9,150,307,18-05-2020,17:57:3
5ec22961a5533967a888db87,46,male,0,1,26,Clear_not_profit_side,low_enforcement,10,1,180,left,16,9,500,1.45,right,right,1,-160,1,0.115,9,708,999,18-05-2020,18:28:19
5ec22961a5533967a888db87,46,male,1,1,27,Ambigous_right,no_enforcement2,0,0,-,right,14,11,500,1.45,right,right,2,1,1,0.22,9,150,307,18-05-2020,17:57:3
5ec22961a5533967a888db87,46,male,0,1,27,Ambigous_right,low_enforcement,10,0,-,left,14,11,500,1.45,right,right,1,20,1,0.302,9,708,999,18-05-2020,18:28:19
5ec22961a5533967a888db87,46,male,1,1,28,Ambigous_left,no_enforcement2,0,0,-,right,11,14,500,1.45,left,left,1,2,1,0.268,9,150,307,18-05-2020,17:57:3
5ec22961a5533967a888db87,46,male,0,1,28,Ambigous_right,low_enforcement,10,0,-,left,14,11,500,1.45,right,right,1,20,1,0.157,9,708,999,18-05-2020,18:28:19
5ec22961a5533967a888db87,46,male,1,1,29,Ambigous_left,no_enforcement2,0,0,-,right,11,14,500,1.45,left,left,1,2,1,0.163,9,150,307,18-05-2020,17:57:3
5ec22961a5533967a888db87,46,male,0,1,29,Ambigous_left,low_enforcement,10,0,-,left,11,14,500,1.45,left,right,1,20,0,0.458,9,708,999,18-05-2020,18:28:19
5ec22961a5533967a888db87,46,male,1,1,30,Clear_not_profit_side,no_enforcement2,0,0,-,right,9,16,500,1.45,left,left,1,2,1,0.143,9,150,307,18-05-2020,17:57:3
5ec22961a5533967a888db87,46,male,0,1,30,Ambigous_left,low_enforcement,10,0,-,left,11,14,500,1.45,left,left,20,1,1,0.189,9,708,999,18-05-2020,18:28:19
5ec22961a5533967a888db87,46,male,1,1,31,Clear_not_profit_side,no_enforcement2,0,0,-,right,9,16,500,1.45,left,left,1,2,1,0.137,9,150,307,18-05-2020,17:57:3
5ec22961a5533967a888db87,46,male,0,1,31,Ambigous_left,low_enforcement,10,0,-,left,11,14,500,1.45,left,left,20,1,1,0.221,9,708,999,18-05-2020,18:28:19
5ec22961a5533967a888db87,46,male,1,1,32,Clear_profit_side,no_enforcement2,0,0,-,right,16,9,500,1.45,right,right,2,1,1,0.252,9,150,307,18-05-2020,17:57:3
5ec22961a5533967a888db87,46,male,0,1,32,Clear_not_profit_side,low_enforcement,10,0,-,left,16,9,500,1.45,right,right,1,20,1,0.172,9,708,999,18-05-2020,18:28:19
5ec22961a5533967a888db87,46,male,1,1,33,Clear_not_profit_side,no_enforcement2,0,0,-,right,9,16,500,1.45,left,left,1,2,1,0.235,9,150,307,18-05-2020,17:57:3
5ec22961a5533967a888db87,46,male,0,1,33,Clear_not_profit_side,low_enforcement,10,1,180,left,16,9,500,1.45,right,right,1,-160,1,0.17,9,708,999,18-05-2020,18:28:19
5ec22961a5533967a888db87,46,male,1,1,34,Ambigous_left,no_enforcement2,0,0,-,right,11,14,500,1.45,left,left,1,2,1,0.175,9,150,307,18-05-2020,17:57:3
5ec22961a5533967a888db87,46,male,0,1,34,Ambigous_right,low_enforcement,10,0,-,left,14,11,500,1.45,right,right,1,20,1,0.137,9,708,999,18-05-2020,18:28:19
5ec22961a5533967a888db87,46,male,1,1,35,Clear_profit_side,no_enforcement2,0,0,-,right,16,9,500,1.45,right,right,2,1,1,0.242,9,150,307,18-05-2020,17:57:3
5ec22961a5533967a888db87,46,male,0,1,35,Clear_profit_side,low_enforcement,10,0,-,left,9,16,500,1.45,left,left,20,1,1,0.201,9,708,999,18-05-2020,18:28:19
5ec22961a5533967a888db87,46,male,1,1,36,Ambigous_right,no_enforcement2,0,0,-,right,14,11,500,1.45,right,right,2,1,1,0.185,9,150,307,18-05-2020,17:57:3
5ec22961a5533967a888db87,46,male,0,1,36,Clear_profit_side,low_enforcement,10,1,180,left,9,16,500,1.45,left,left,20,-179,1,0.137,9,708,999,18-05-2020,18:28:19
5ec22961a5533967a888db87,46,male,1,1,37,Clear_profit_side,no_enforcement2,0,0,-,right,16,9,500,1.45,right,right,2,1,1,0.147,9,150,307,18-05-2020,17:57:3
5ec22961a5533967a888db87,46,male,0,1,37,Clear_not_profit_side,low_enforcement,10,0,-,left,16,9,500,1.45,right,right,1,20,1,0.175,9,708,999,18-05-2020,18:28:19
5ec22961a5533967a888db87,46,male,1,1,38,Clear_not_profit_side,no_enforcement2,0,0,-,right,9,16,500,1.45,left,left,1,2,1,0.165,9,150,307,18-05-2020,17:57:3
5ec22961a5533967a888db87,46,male,0,1,38,Clear_not_profit_side,low_enforcement,10,0,-,left,16,9,500,1.45,right,right,1,20,1,0.178,9,708,999,18-05-2020,18:28:19
5ec22961a5533967a888db87,46,male,1,1,39,Clear_not_profit_side,no_enforcement2,0,0,-,right,9,16,500,1.45,left,left,1,2,1,0.127,9,150,307,18-05-2020,17:57:3
5ec22961a5533967a888db87,46,male,0,1,39,Clear_profit_side,low_enforcement,10,0,-,left,9,16,500,1.45,left,left,20,1,1,0.164,9,708,999,18-05-2020,18:28:19
5ec22961a5533967a888db87,46,male,1,1,40,Ambigous_left,no_enforcement2,0,0,-,right,11,14,500,1.45,left,left,1,2,1,0.137,9,150,307,18-05-2020,17:57:3
5ec22961a5533967a888db87,46,male,0,1,40,Clear_profit_side,low_enforcement,10,0,-,left,9,16,500,1.45,left,left,20,1,1,0.145,9,708,999,18-05-2020,18:28:19
5ec22961a5533967a888db87,46,male,1,1,41,Ambigous_right,no_enforcement2,0,0,-,right,14,11,500,1.45,right,right,2,1,1,0.236,9,150,307,18-05-2020,17:57:3
5ec22961a5533967a888db87,46,male,0,1,41,Ambigous_left,low_enforcement,10,0,-,left,11,14,500,1.45,left,right,1,20,0,0.181,9,708,999,18-05-2020,18:28:19
5ec22961a5533967a888db87,46,male,1,1,42,Clear_not_profit_side,no_enforcement2,0,0,-,right,9,16,500,1.45,left,left,1,2,1,0.174,9,150,307,18-05-2020,17:57:3
5ec22961a5533967a888db87,46,male,0,1,42,Ambigous_left,low_enforcement,10,0,-,left,11,14,500,1.45,left,left,20,1,1,0.179,9,708,999,18-05-2020,18:28:19
5ec22961a5533967a888db87,46,male,1,1,43,Clear_not_profit_side,no_enforcement2,0,0,-,right,9,16,500,1.45,left,left,1,2,1,0.155,9,150,307,18-05-2020,17:57:3
5ec22961a5533967a888db87,46,male,0,1,43,Ambigous_left,low_enforcement,10,0,-,left,11,14,500,1.45,left,left,20,1,1,0.298,9,708,999,18-05-2020,18:28:19
5ec22961a5533967a888db87,46,male,1,1,44,Ambigous_left,no_enforcement2,0,0,-,right,11,14,500,1.45,left,left,1,2,1,0.166,9,150,307,18-05-2020,17:57:3
5ec22961a5533967a888db87,46,male,0,1,44,Clear_profit_side,low_enforcement,10,0,-,left,9,16,500,1.45,left,left,20,1,1,0.137,9,708,999,18-05-2020,18:28:19
5ec22961a5533967a888db87,46,male,1,1,45,Ambigous_left,no_enforcement2,0,0,-,right,11,14,500,1.45,left,left,1,2,1,0.148,9,150,307,18-05-2020,17:57:3
5ec22961a5533967a888db87,46,male,0,1,45,Ambigous_right,low_enforcement,10,0,-,left,14,11,500,1.45,right,right,1,20,1,0.155,9,708,999,18-05-2020,18:28:19
5ec22961a5533967a888db87,46,male,1,1,46,Ambigous_right,no_enforcement2,0,0,-,right,14,11,500,1.45,right,right,2,1,1,0.212,9,150,307,18-05-2020,17:57:3
5ec22961a5533967a888db87,46,male,0,1,46,Ambigous_left,low_enforcement,10,0,-,left,11,14,500,1.45,left,right,1,20,0,0.257,9,708,999,18-05-2020,18:28:19
5ec22961a5533967a888db87,46,male,1,1,47,Ambigous_right,no_enforcement2,0,0,-,right,14,11,500,1.45,right,right,2,1,1,0.195,9,150,307,18-05-2020,17:57:3
5ec22961a5533967a888db87,46,male,0,1,47,Ambigous_left,low_enforcement,10,0,-,left,11,14,500,1.45,left,left,20,1,1,0.488,9,708,999,18-05-2020,18:28:19
5ec22961a5533967a888db87,46,male,1,1,48,Clear_profit_side,no_enforcement2,0,0,-,right,16,9,500,1.45,right,right,2,1,1,0.174,9,150,307,18-05-2020,17:57:3
5ec22961a5533967a888db87,46,male,0,1,48,Clear_not_profit_side,low_enforcement,10,0,-,left,16,9,500,1.45,right,right,1,20,1,0.167,9,708,999,18-05-2020,18:28:19
5ec22961a5533967a888db87,46,male,1,1,49,Ambigous_right,no_enforcement2,0,0,-,right,14,11,500,1.45,right,right,2,1,1,0.169,9,150,307,18-05-2020,17:57:3
5ec22961a5533967a888db87,46,male,0,1,49,Clear_not_profit_side,low_enforcement,10,0,-,left,16,9,500,1.45,right,right,1,20,1,0.113,9,708,999,18-05-2020,18:28:19
5ec22961a5533967a888db87,46,male,1,1,50,Ambigous_right,no_enforcement2,0,0,-,right,14,11,500,1.45,right,right,2,1,1,0.143,9,150,307,18-05-2020,17:57:3
5ec22961a5533967a888db87,46,male,0,1,50,Ambigous_right,low_enforcement,10,0,-,left,14,11,500,1.45,right,right,1,20,1,0.125,9,708,999,18-05-2020,18:28:19
5ec22961a5533967a888db87,46,male,1,1,51,Clear_profit_side,no_enforcement2,0,0,-,right,16,9,500,1.45,right,right,2,1,1,0.13,9,150,307,18-05-2020,17:57:3
5ec22961a5533967a888db87,46,male,0,1,51,Ambigous_left,low_enforcement,10,0,-,left,11,14,500,1.45,left,right,1,20,0,0.151,9,708,999,18-05-2020,18:28:19
5ec22961a5533967a888db87,46,male,1,1,52,Ambigous_left,no_enforcement2,0,0,-,right,11,14,500,1.45,left,left,1,2,1,0.312,9,150,307,18-05-2020,17:57:3
5ec22961a5533967a888db87,46,male,0,1,52,Clear_profit_side,low_enforcement,10,1,180,left,9,16,500,1.45,left,left,20,-179,1,0.205,9,708,999,18-05-2020,18:28:19
5ec22961a5533967a888db87,46,male,1,1,53,Clear_not_profit_side,no_enforcement2,0,0,-,right,9,16,500,1.45,left,left,1,2,1,0.165,9,150,307,18-05-2020,17:57:3
5ec22961a5533967a888db87,46,male,0,1,53,Clear_not_profit_side,low_enforcement,10,0,-,left,16,9,500,1.45,right,right,1,20,1,0.285,9,708,999,18-05-2020,18:28:19
5ec22961a5533967a888db87,46,male,1,1,54,Clear_not_profit_side,no_enforcement2,0,0,-,right,9,16,500,1.45,left,left,1,2,1,0.195,9,150,307,18-05-2020,17:57:3
5ec22961a5533967a888db87,46,male,0,1,54,Clear_not_profit_side,low_enforcement,10,0,-,left,16,9,500,1.45,right,right,1,20,1,0.121,9,708,999,18-05-2020,18:28:19
5ec22961a5533967a888db87,46,male,1,1,55,Ambigous_left,no_enforcement2,0,0,-,right,11,14,500,1.45,left,left,1,2,1,0.175,9,150,307,18-05-2020,17:57:3
5ec22961a5533967a888db87,46,male,0,1,55,Clear_profit_side,low_enforcement,10,1,180,left,9,16,500,1.45,left,left,20,-179,1,0.199,9,708,999,18-05-2020,18:28:19
5ec22961a5533967a888db87,46,male,1,1,56,Clear_not_profit_side,no_enforcement2,0,0,-,right,9,16,500,1.45,left,left,1,2,1,0.17,9,150,307,18-05-2020,17:57:3
5ec22961a5533967a888db87,46,male,0,1,56,Clear_not_profit_side,low_enforcement,10,0,-,left,16,9,500,1.45,right,right,1,20,1,0.155,9,708,999,18-05-2020,18:28:19
5ec22961a5533967a888db87,46,male,1,1,57,Clear_not_profit_side,no_enforcement2,0,0,-,right,9,16,500,1.45,left,left,1,2,1,0.191,9,150,307,18-05-2020,17:57:3
5ec22961a5533967a888db87,46,male,0,1,57,Ambigous_right,low_enforcement,10,0,-,left,14,11,500,1.45,right,right,1,20,1,0.116,9,708,999,18-05-2020,18:28:19
5ec22961a5533967a888db87,46,male,1,1,58,Ambigous_right,no_enforcement2,0,0,-,right,14,11,500,1.45,right,right,2,1,1,0.203,9,150,307,18-05-2020,17:57:3
5ec22961a5533967a888db87,46,male,0,1,58,Ambigous_right,low_enforcement,10,0,-,left,14,11,500,1.45,right,right,1,20,1,0.126,9,708,999,18-05-2020,18:28:19
5ec22961a5533967a888db87,46,male,1,1,59,Clear_not_profit_side,no_enforcement2,0,0,-,right,9,16,500,1.45,left,left,1,2,1,0.184,9,150,307,18-05-2020,17:57:3
5ec22961a5533967a888db87,46,male,0,1,59,Ambigous_left,low_enforcement,10,0,-,left,11,14,500,1.45,left,left,20,1,1,0.214,9,708,999,18-05-2020,18:28:19
5ec22961a5533967a888db87,46,male,1,1,60,Ambigous_right,no_enforcement2,0,0,-,right,14,11,500,1.45,right,right,2,1,1,0.239,9,150,307,18-05-2020,17:57:3
5ec22961a5533967a888db87,46,male,0,1,60,Clear_not_profit_side,low_enforcement,10,1,180,left,16,9,500,1.45,right,right,1,-160,1,0.152,9,708,999,18-05-2020,18:28:19
5ec22961a5533967a888db87,46,male,1,1,61,Clear_not_profit_side,no_enforcement2,0,0,-,right,9,16,500,1.45,left,left,1,2,1,0.185,9,150,307,18-05-2020,17:57:3
5ec22961a5533967a888db87,46,male,0,1,61,Ambigous_left,low_enforcement,10,0,-,left,11,14,500,1.45,left,left,20,1,1,0.242,9,708,999,18-05-2020,18:28:19
5ec22961a5533967a888db87,46,male,1,1,62,Clear_profit_side,no_enforcement2,0,0,-,right,16,9,500,1.45,right,right,2,1,1,0.166,9,150,307,18-05-2020,17:57:3
5ec22961a5533967a888db87,46,male,0,1,62,Ambigous_left,low_enforcement,10,0,-,left,11,14,500,1.45,left,left,20,1,1,0.639,9,708,999,18-05-2020,18:28:19
5ec22961a5533967a888db87,46,male,1,1,63,Ambigous_left,no_enforcement2,0,0,-,right,11,14,500,1.45,left,left,1,2,1,0.181,9,150,307,18-05-2020,17:57:3
5ec22961a5533967a888db87,46,male,0,1,63,Clear_not_profit_side,low_enforcement,10,0,-,left,16,9,500,1.45,right,right,1,20,1,0.159,9,708,999,18-05-2020,18:28:19
5ec22961a5533967a888db87,46,male,1,1,64,Clear_profit_side,no_enforcement2,0,0,-,right,16,9,500,1.45,right,right,2,1,1,0.146,9,150,307,18-05-2020,17:57:3
5ec22961a5533967a888db87,46,male,0,1,64,Ambigous_right,low_enforcement,10,0,-,left,14,11,500,1.45,right,right,1,20,1,0.12,9,708,999,18-05-2020,18:28:19
5ec22961a5533967a888db87,46,male,1,1,65,Clear_profit_side,no_enforcement2,0,0,-,right,16,9,500,1.45,right,right,2,1,1,0.221,9,150,307,18-05-2020,17:57:3
5ec22961a5533967a888db87,46,male,0,1,65,Ambigous_right,low_enforcement,10,0,-,left,14,11,500,1.45,right,right,1,20,1,0.11,9,708,999,18-05-2020,18:28:20
5ec22961a5533967a888db87,46,male,1,1,66,Clear_not_profit_side,no_enforcement2,0,0,-,right,9,16,500,1.45,left,right,2,1,0,0.831,9,150,307,18-05-2020,17:57:3
5ec22961a5533967a888db87,46,male,0,1,66,Ambigous_right,low_enforcement,10,0,-,left,14,11,500,1.45,right,right,1,20,1,0.116,9,708,999,18-05-2020,18:28:20
5ec22961a5533967a888db87,46,male,1,1,67,Clear_profit_side,no_enforcement2,0,0,-,right,16,9,500,1.45,right,right,2,1,1,0.195,9,150,307,18-05-2020,17:57:3
5ec22961a5533967a888db87,46,male,0,1,67,Clear_not_profit_side,low_enforcement,10,1,180,left,16,9,500,1.45,right,right,1,-160,1,0.122,9,708,999,18-05-2020,18:28:20
5ec22961a5533967a888db87,46,male,1,1,68,Clear_not_profit_side,no_enforcement2,0,0,-,right,9,16,500,1.45,left,left,1,2,1,0.166,9,150,307,18-05-2020,17:57:3
5ec22961a5533967a888db87,46,male,0,1,68,Ambigous_left,low_enforcement,10,0,-,left,11,14,500,1.45,left,left,20,1,1,0.192,9,708,999,18-05-2020,18:28:20
5ec22961a5533967a888db87,46,male,1,1,69,Clear_profit_side,no_enforcement2,0,0,-,right,16,9,500,1.45,right,right,2,1,1,0.155,9,150,307,18-05-2020,17:57:3
5ec22961a5533967a888db87,46,male,0,1,69,Ambigous_right,low_enforcement,10,0,-,left,14,11,500,1.45,right,right,1,20,1,0.204,9,708,999,18-05-2020,18:28:20
5ec22961a5533967a888db87,46,male,1,1,70,Clear_profit_side,no_enforcement2,0,0,-,right,16,9,500,1.45,right,right,2,1,1,0.137,9,150,307,18-05-2020,17:57:3
5ec22961a5533967a888db87,46,male,0,1,70,Clear_profit_side,low_enforcement,10,0,-,left,9,16,500,1.45,left,left,20,1,1,0.178,9,708,999,18-05-2020,18:28:20
5ec22961a5533967a888db87,46,male,1,1,71,Clear_profit_side,no_enforcement2,0,0,-,right,16,9,500,1.45,right,right,2,1,1,0.137,9,150,307,18-05-2020,17:57:3
5ec22961a5533967a888db87,46,male,0,1,71,Clear_not_profit_side,low_enforcement,10,1,180,left,16,9,500,1.45,right,right,1,-160,1,0.164,9,708,999,18-05-2020,18:28:20
5ec22961a5533967a888db87,46,male,1,1,72,Ambigous_right,no_enforcement2,0,0,-,right,14,11,500,1.45,right,right,2,1,1,0.159,9,150,307,18-05-2020,17:57:3
5ec22961a5533967a888db87,46,male,0,1,72,Ambigous_left,low_enforcement,10,0,-,left,11,14,500,1.45,left,left,20,1,1,0.172,9,708,999,18-05-2020,18:28:20
5ec22961a5533967a888db87,46,male,1,1,73,Ambigous_right,no_enforcement2,0,0,-,right,14,11,500,1.45,right,right,2,1,1,0.155,9,150,307,18-05-2020,17:57:3
5ec22961a5533967a888db87,46,male,0,1,73,Clear_not_profit_side,low_enforcement,10,1,180,left,16,9,500,1.45,right,right,1,-160,1,0.142,9,708,999,18-05-2020,18:28:20
5ec22961a5533967a888db87,46,male,1,1,74,Clear_profit_side,no_enforcement2,0,0,-,right,16,9,500,1.45,right,right,2,1,1,0.129,9,150,307,18-05-2020,17:57:3
5ec22961a5533967a888db87,46,male,0,1,74,Clear_not_profit_side,low_enforcement,10,1,180,left,16,9,500,1.45,right,right,1,-160,1,0.129,9,708,999,18-05-2020,18:28:20
5ec22961a5533967a888db87,46,male,1,1,75,Clear_not_profit_side,no_enforcement2,0,0,-,right,9,16,500,1.45,left,left,1,2,1,0.159,9,150,307,18-05-2020,17:57:3
5ec22961a5533967a888db87,46,male,0,1,75,Ambigous_right,low_enforcement,10,1,180,left,14,11,500,1.45,right,right,1,-160,1,0.126,9,708,999,18-05-2020,18:28:20
5ec22961a5533967a888db87,46,male,1,1,76,Ambigous_right,no_enforcement2,0,0,-,right,14,11,500,1.45,right,right,2,1,1,0.152,9,150,307,18-05-2020,17:57:3
5ec22961a5533967a888db87,46,male,0,1,76,Ambigous_left,low_enforcement,10,0,-,left,11,14,500,1.45,left,left,20,1,1,0.192,9,708,999,18-05-2020,18:28:20
5ec22961a5533967a888db87,46,male,1,1,77,Clear_not_profit_side,no_enforcement2,0,0,-,right,9,16,500,1.45,left,right,2,1,0,0.176,9,150,307,18-05-2020,17:57:3
5ec22961a5533967a888db87,46,male,0,1,77,Ambigous_right,low_enforcement,10,0,-,left,14,11,500,1.45,right,right,1,20,1,0.125,9,708,999,18-05-2020,18:28:20
5ec22961a5533967a888db87,46,male,1,1,78,Clear_not_profit_side,no_enforcement2,0,0,-,right,9,16,500,1.45,left,right,2,1,0,0.182,9,150,307,18-05-2020,17:57:3
5ec22961a5533967a888db87,46,male,0,1,78,Ambigous_right,low_enforcement,10,1,180,left,14,11,500,1.45,right,right,1,-160,1,0.092,9,708,999,18-05-2020,18:28:20
5ec22961a5533967a888db87,46,male,1,1,79,Clear_profit_side,no_enforcement2,0,0,-,right,16,9,500,1.45,right,right,2,1,1,0.116,9,150,307,18-05-2020,17:57:3
5ec22961a5533967a888db87,46,male,0,1,79,Ambigous_left,low_enforcement,10,0,-,left,11,14,500,1.45,left,right,1,20,0,0.154,9,708,999,18-05-2020,18:28:20
5ec22961a5533967a888db87,46,male,1,1,80,Ambigous_right,no_enforcement2,0,0,-,right,14,11,500,1.45,right,right,2,1,1,0.188,9,150,307,18-05-2020,17:57:3
5ec22961a5533967a888db87,46,male,0,1,80,Ambigous_left,low_enforcement,10,0,-,left,11,14,500,1.45,left,left,20,1,1,0.296,9,708,999,18-05-2020,18:28:20
5ec22961a5533967a888db87,46,male,1,1,81,Ambigous_left,no_enforcement2,0,0,-,right,11,14,500,1.45,left,right,2,1,0,0.148,9,150,307,18-05-2020,17:57:3
5ec22961a5533967a888db87,46,male,0,1,81,Ambigous_left,low_enforcement,10,0,-,left,11,14,500,1.45,left,left,20,1,1,0.152,9,708,999,18-05-2020,18:28:20
5ec22961a5533967a888db87,46,male,1,1,82,Ambigous_right,no_enforcement2,0,0,-,right,14,11,500,1.45,right,right,2,1,1,0.233,9,150,307,18-05-2020,17:57:3
5ec22961a5533967a888db87,46,male,0,1,82,Clear_not_profit_side,low_enforcement,10,0,-,left,16,9,500,1.45,right,right,1,20,1,0.13,9,708,999,18-05-2020,18:28:20
5ec22961a5533967a888db87,46,male,1,1,83,Ambigous_right,no_enforcement2,0,0,-,right,14,11,500,1.45,right,right,2,1,1,0.124,9,150,307,18-05-2020,17:57:3
5ec22961a5533967a888db87,46,male,0,1,83,Clear_profit_side,low_enforcement,10,0,-,left,9,16,500,1.45,left,left,20,1,1,0.181,9,708,999,18-05-2020,18:28:20
5ec22961a5533967a888db87,46,male,1,1,84,Ambigous_right,no_enforcement2,0,0,-,right,14,11,500,1.45,right,right,2,1,1,0.136,9,150,307,18-05-2020,17:57:3
5ec22961a5533967a888db87,46,male,0,1,84,Clear_profit_side,low_enforcement,10,0,-,left,9,16,500,1.45,left,left,20,1,1,0.134,9,708,999,18-05-2020,18:28:20
5ec22961a5533967a888db87,46,male,1,1,85,Ambigous_left,no_enforcement2,0,0,-,right,11,14,500,1.45,left,left,1,2,1,0.171,9,150,307,18-05-2020,17:57:3
5ec22961a5533967a888db87,46,male,0,1,85,Ambigous_right,low_enforcement,10,0,-,left,14,11,500,1.45,right,right,1,20,1,0.148,9,708,999,18-05-2020,18:28:20
5ec22961a5533967a888db87,46,male,1,1,86,Ambigous_right,no_enforcement2,0,0,-,right,14,11,500,1.45,right,right,2,1,1,0.686,9,150,307,18-05-2020,17:57:3
5ec22961a5533967a888db87,46,male,0,1,86,Ambigous_left,low_enforcement,10,0,-,left,11,14,500,1.45,left,left,20,1,1,0.194,9,708,999,18-05-2020,18:28:20
5ec22961a5533967a888db87,46,male,1,1,87,Clear_not_profit_side,no_enforcement2,0,0,-,right,9,16,500,1.45,left,left,1,2,1,0.442,9,150,307,18-05-2020,17:57:3
5ec22961a5533967a888db87,46,male,0,1,87,Ambigous_right,low_enforcement,10,0,-,left,14,11,500,1.45,right,right,1,20,1,0.135,9,708,999,18-05-2020,18:28:20
5ec22961a5533967a888db87,46,male,1,1,88,Ambigous_right,no_enforcement2,0,0,-,right,14,11,500,1.45,right,right,2,1,1,0.201,9,150,307,18-05-2020,17:57:3
5ec22961a5533967a888db87,46,male,0,1,88,Ambigous_right,low_enforcement,10,0,-,left,14,11,500,1.45,right,right,1,20,1,0.145,9,708,999,18-05-2020,18:28:20
5ec22961a5533967a888db87,46,male,1,1,89,Ambigous_right,no_enforcement2,0,0,-,right,14,11,500,1.45,right,right,2,1,1,0.171,9,150,307,18-05-2020,17:57:3
5ec22961a5533967a888db87,46,male,0,1,89,Clear_not_profit_side,low_enforcement,10,0,-,left,16,9,500,1.45,right,right,1,20,1,0.075,9,708,999,18-05-2020,18:28:20
5ec22961a5533967a888db87,46,male,1,1,90,Ambigous_right,no_enforcement2,0,0,-,right,14,11,500,1.45,right,right,2,1,1,0.118,9,150,307,18-05-2020,17:57:3
5ec22961a5533967a888db87,46,male,0,1,90,Clear_not_profit_side,low_enforcement,10,0,-,left,16,9,500,1.45,right,right,1,20,1,0.138,9,708,999,18-05-2020,18:28:20
5ec22961a5533967a888db87,46,male,1,1,91,Ambigous_left,no_enforcement2,0,0,-,right,11,14,500,1.45,left,left,1,2,1,0.223,9,150,307,18-05-2020,17:57:3
5ec22961a5533967a888db87,46,male,0,1,91,Clear_not_profit_side,low_enforcement,10,0,-,left,16,9,500,1.45,right,right,1,20,1,0.135,9,708,999,18-05-2020,18:28:20
5ec22961a5533967a888db87,46,male,1,1,92,Clear_not_profit_side,no_enforcement2,0,0,-,right,9,16,500,1.45,left,left,1,2,1,0.15,9,150,307,18-05-2020,17:57:3
5ec22961a5533967a888db87,46,male,0,1,92,Ambigous_right,low_enforcement,10,0,-,left,14,11,500,1.45,right,right,1,20,1,6.466,9,708,999,18-05-2020,18:28:20
5ec22961a5533967a888db87,46,male,1,1,93,Ambigous_left,no_enforcement2,0,0,-,right,11,14,500,1.45,left,right,2,1,0,0.223,9,150,307,18-05-2020,17:57:3
5ec22961a5533967a888db87,46,male,0,1,93,Ambigous_left,low_enforcement,10,0,-,left,11,14,500,1.45,left,left,20,1,1,0.165,9,708,999,18-05-2020,18:28:20
5ec22961a5533967a888db87,46,male,1,1,94,Ambigous_right,no_enforcement2,0,0,-,right,14,11,500,1.45,right,right,2,1,1,0.12,9,150,307,18-05-2020,17:57:3
5ec22961a5533967a888db87,46,male,0,1,94,Clear_not_profit_side,low_enforcement,10,0,-,left,16,9,500,1.45,right,right,1,20,1,0.115,9,708,999,18-05-2020,18:28:20
5ec22961a5533967a888db87,46,male,1,1,95,Ambigous_left,no_enforcement2,0,0,-,right,11,14,500,1.45,left,left,1,2,1,0.35,9,150,307,18-05-2020,17:57:3
5ec22961a5533967a888db87,46,male,0,1,95,Ambigous_right,low_enforcement,10,0,-,left,14,11,500,1.45,right,right,1,20,1,0.11,9,708,999,18-05-2020,18:28:20
5ec22961a5533967a888db87,46,male,1,1,96,Clear_not_profit_side,no_enforcement2,0,0,-,right,9,16,500,1.45,left,left,1,2,1,0.157,9,150,307,18-05-2020,17:57:3
5ec22961a5533967a888db87,46,male,0,1,96,Clear_not_profit_side,low_enforcement,10,0,-,left,16,9,500,1.45,right,right,1,20,1,0.104,9,708,999,18-05-2020,18:28:20
5ec22961a5533967a888db87,46,male,1,1,97,Ambigous_left,no_enforcement2,0,0,-,right,11,14,500,1.45,left,left,1,2,1,0.159,9,150,307,18-05-2020,17:57:3
5ec22961a5533967a888db87,46,male,0,1,97,Ambigous_right,low_enforcement,10,0,-,left,14,11,500,1.45,right,right,1,20,1,0.111,9,708,999,18-05-2020,18:28:20
5ec22961a5533967a888db87,46,male,1,1,98,Clear_not_profit_side,no_enforcement2,0,0,-,right,9,16,500,1.45,left,left,1,2,1,0.146,9,150,307,18-05-2020,17:57:3
5ec22961a5533967a888db87,46,male,0,1,98,Clear_not_profit_side,low_enforcement,10,0,-,left,16,9,500,1.45,right,right,1,20,1,0.122,9,708,999,18-05-2020,18:28:20
5ec22961a5533967a888db87,46,male,1,1,99,Ambigous_right,no_enforcement2,0,0,-,right,14,11,500,1.45,right,right,2,1,1,0.242,9,150,307,18-05-2020,17:57:3
5ec22961a5533967a888db87,46,male,0,1,99,Ambigous_left,low_enforcement,10,0,-,left,11,14,500,1.45,left,left,20,1,1,0.216,9,708,999,18-05-2020,18:28:20
5ec22961a5533967a888db87,46,male,1,1,100,Clear_not_profit_side,no_enforcement2,0,0,-,right,9,16,500,1.45,left,left,1,2,1,0.22,9,150,307,18-05-2020,17:57:3
5ec22961a5533967a888db87,46,male,0,1,100,Clear_not_profit_side,low_enforcement,10,1,180,left,16,9,500,1.45,right,right,1,-160,1,0.214,9,708,999,18-05-2020,18:28:20
5ec22961a5533967a888db87,46,male,1,2,1,Clear_not_profit_side,no_enforcement2,0,0,-,right,9,16,500,1.45,left,left,1,2,1,0.195,16,157,307,18-05-2020,17:57:3
5ec22961a5533967a888db87,46,male,0,2,1,Ambigous_left,low_enforcement,10,1,180,left,11,14,500,1.45,left,right,-179,-160,0,0.118,12,291,999,18-05-2020,18:28:20
5ec22961a5533967a888db87,46,male,1,2,2,Clear_profit_side,no_enforcement2,0,0,-,right,16,9,500,1.45,right,right,2,1,1,0.206,16,157,307,18-05-2020,17:57:3
5ec22961a5533967a888db87,46,male,0,2,2,Clear_not_profit_side,low_enforcement,10,0,-,left,16,9,500,1.45,right,right,1,20,1,0.161,12,291,999,18-05-2020,18:28:20
5ec22961a5533967a888db87,46,male,1,2,3,Ambigous_left,no_enforcement2,0,0,-,right,11,14,500,1.45,left,left,1,2,1,0.224,16,157,307,18-05-2020,17:57:3
5ec22961a5533967a888db87,46,male,0,2,3,Clear_not_profit_side,low_enforcement,10,0,-,left,16,9,500,1.45,right,right,1,20,1,0.038,12,291,999,18-05-2020,18:28:20
5ec22961a5533967a888db87,46,male,1,2,4,Clear_not_profit_side,no_enforcement2,0,0,-,right,9,16,500,1.45,left,left,1,2,1,0.161,16,157,307,18-05-2020,17:57:3
5ec22961a5533967a888db87,46,male,0,2,4,Ambigous_right,low_enforcement,10,0,-,left,14,11,500,1.45,right,right,1,20,1,0.056,12,291,999,18-05-2020,18:28:20
5ec22961a5533967a888db87,46,male,1,2,5,Clear_not_profit_side,no_enforcement2,0,0,-,right,9,16,500,1.45,left,left,1,2,1,0.132,16,157,307,18-05-2020,17:57:3
5ec22961a5533967a888db87,46,male,0,2,5,Clear_not_profit_side,low_enforcement,10,0,-,left,16,9,500,1.45,right,right,1,20,1,0.034,12,291,999,18-05-2020,18:28:20
5ec22961a5533967a888db87,46,male,1,2,6,Ambigous_left,no_enforcement2,0,0,-,right,11,14,500,1.45,left,right,2,1,0,0.281,16,157,307,18-05-2020,17:57:3
5ec22961a5533967a888db87,46,male,0,2,6,Clear_not_profit_side,low_enforcement,10,1,180,left,16,9,500,1.45,right,right,1,-160,1,0.031,12,291,999,18-05-2020,18:28:20
5ec22961a5533967a888db87,46,male,1,2,7,Clear_not_profit_side,no_enforcement2,0,0,-,right,9,16,500,1.45,left,left,1,2,1,0.196,16,157,307,18-05-2020,17:57:3
5ec22961a5533967a888db87,46,male,0,2,7,Ambigous_left,low_enforcement,10,0,-,left,11,14,500,1.45,left,left,20,1,1,0.178,12,291,999,18-05-2020,18:28:20
5ec22961a5533967a888db87,46,male,1,2,8,Ambigous_right,no_enforcement2,0,0,-,right,14,11,500,1.45,right,right,2,1,1,0.195,16,157,307,18-05-2020,17:57:3
5ec22961a5533967a888db87,46,male,0,2,8,Ambigous_right,low_enforcement,10,0,-,left,14,11,500,1.45,right,right,1,20,1,0.142,12,291,999,18-05-2020,18:28:20
5ec22961a5533967a888db87,46,male,1,2,9,Ambigous_left,no_enforcement2,0,0,-,right,11,14,500,1.45,left,right,2,1,0,0.197,16,157,307,18-05-2020,17:57:3
5ec22961a5533967a888db87,46,male,0,2,9,Clear_not_profit_side,low_enforcement,10,0,-,left,16,9,500,1.45,right,right,1,20,1,0.03,12,291,999,18-05-2020,18:28:20
5ec22961a5533967a888db87,46,male,1,2,10,Ambigous_left,no_enforcement2,0,0,-,right,11,14,500,1.45,left,left,1,2,1,0.308,16,157,307,18-05-2020,17:57:3
5ec22961a5533967a888db87,46,male,0,2,10,Clear_not_profit_side,low_enforcement,10,0,-,left,16,9,500,1.45,right,right,1,20,1,0.712,12,291,999,18-05-2020,18:28:20
5ec22961a5533967a888db87,46,male,1,2,11,Clear_profit_side,no_enforcement2,0,0,-,right,16,9,500,1.45,right,right,2,1,1,0.158,16,157,307,18-05-2020,17:57:3
5ec22961a5533967a888db87,46,male,0,2,11,Ambigous_left,low_enforcement,10,0,-,left,11,14,500,1.45,left,right,1,20,0,0.217,12,291,999,18-05-2020,18:28:20
5ec22961a5533967a888db87,46,male,1,2,12,Clear_not_profit_side,no_enforcement2,0,0,-,right,9,16,500,1.45,left,left,1,2,1,0.222,16,157,307,18-05-2020,17:57:3
5ec22961a5533967a888db87,46,male,0,2,12,Clear_not_profit_side,low_enforcement,10,0,-,left,16,9,500,1.45,right,right,1,20,1,0.092,12,291,999,18-05-2020,18:28:20
5ec22961a5533967a888db87,46,male,1,2,13,Ambigous_right,no_enforcement2,0,0,-,right,14,11,500,1.45,right,right,2,1,1,0.161,16,157,307,18-05-2020,17:57:3
5ec22961a5533967a888db87,46,male,0,2,13,Ambigous_left,low_enforcement,10,0,-,left,11,14,500,1.45,left,right,1,20,0,0.246,12,291,999,18-05-2020,18:28:20
5ec22961a5533967a888db87,46,male,1,2,14,Ambigous_left,no_enforcement2,0,0,-,right,11,14,500,1.45,left,right,2,1,0,0.281,16,157,307,18-05-2020,17:57:3
5ec22961a5533967a888db87,46,male,0,2,14,Clear_not_profit_side,low_enforcement,10,0,-,left,16,9,500,1.45,right,right,1,20,1,0.133,12,291,999,18-05-2020,18:28:20
5ec22961a5533967a888db87,46,male,1,2,15,Clear_not_profit_side,no_enforcement2,0,0,-,right,9,16,500,1.45,left,left,1,2,1,0.175,16,157,307,18-05-2020,17:57:3
5ec22961a5533967a888db87,46,male,0,2,15,Clear_profit_side,low_enforcement,10,0,-,left,9,16,500,1.45,left,left,20,1,1,0.15,12,291,999,18-05-2020,18:28:20
5ec22961a5533967a888db87,46,male,1,2,16,Ambigous_left,no_enforcement2,0,0,-,right,11,14,500,1.45,left,right,2,1,0,0.236,16,157,307,18-05-2020,17:57:3
5ec22961a5533967a888db87,46,male,0,2,16,Ambigous_left,low_enforcement,10,0,-,left,11,14,500,1.45,left,left,20,1,1,0.121,12,291,999,18-05-2020,18:28:20
5ec22961a5533967a888db87,46,male,1,2,17,Clear_profit_side,no_enforcement2,0,0,-,right,16,9,500,1.45,right,right,2,1,1,0.119,16,157,307,18-05-2020,17:57:3
5ec22961a5533967a888db87,46,male,0,2,17,Ambigous_left,low_enforcement,10,0,-,left,11,14,500,1.45,left,left,20,1,1,0.132,12,291,999,18-05-2020,18:28:20
5ec22961a5533967a888db87,46,male,1,2,18,Ambigous_right,no_enforcement2,0,0,-,right,14,11,500,1.45,right,right,2,1,1,0.126,16,157,307,18-05-2020,17:57:3
5ec22961a5533967a888db87,46,male,0,2,18,Clear_not_profit_side,low_enforcement,10,0,-,left,16,9,500,1.45,right,right,1,20,1,0.122,12,291,999,18-05-2020,18:28:20
5ec22961a5533967a888db87,46,male,1,2,19,Clear_not_profit_side,no_enforcement2,0,0,-,right,9,16,500,1.45,left,left,1,2,1,0.21,16,157,307,18-05-2020,17:57:3
5ec22961a5533967a888db87,46,male,0,2,19,Ambigous_left,low_enforcement,10,0,-,left,11,14,500,1.45,left,right,1,20,0,0.148,12,291,999,18-05-2020,18:28:20
5ec22961a5533967a888db87,46,male,1,2,20,Ambigous_left,no_enforcement2,0,0,-,right,11,14,500,1.45,left,left,1,2,1,0.184,16,157,307,18-05-2020,17:57:3
5ec22961a5533967a888db87,46,male,0,2,20,Ambigous_right,low_enforcement,10,0,-,left,14,11,500,1.45,right,right,1,20,1,0.129,12,291,999,18-05-2020,18:28:20
5ec22961a5533967a888db87,46,male,1,2,21,Ambigous_right,no_enforcement2,0,0,-,right,14,11,500,1.45,right,right,2,1,1,0.185,16,157,307,18-05-2020,17:57:3
5ec22961a5533967a888db87,46,male,0,2,21,Clear_not_profit_side,low_enforcement,10,0,-,left,16,9,500,1.45,right,right,1,20,1,0.061,12,291,999,18-05-2020,18:28:20
5ec22961a5533967a888db87,46,male,1,2,22,Clear_not_profit_side,no_enforcement2,0,0,-,right,9,16,500,1.45,left,left,1,2,1,0.154,16,157,307,18-05-2020,17:57:3
5ec22961a5533967a888db87,46,male,0,2,22,Clear_profit_side,low_enforcement,10,0,-,left,9,16,500,1.45,left,right,1,20,0,0.034,12,291,999,18-05-2020,18:28:20
5ec22961a5533967a888db87,46,male,1,2,23,Clear_not_profit_side,no_enforcement2,0,0,-,right,9,16,500,1.45,left,left,1,2,1,0.132,16,157,307,18-05-2020,17:57:3
5ec22961a5533967a888db87,46,male,0,2,23,Ambigous_right,low_enforcement,10,0,-,left,14,11,500,1.45,right,right,1,20,1,0.617,12,291,999,18-05-2020,18:28:20
5ec22961a5533967a888db87,46,male,1,2,24,Ambigous_left,no_enforcement2,0,0,-,right,11,14,500,1.45,left,right,2,1,0,0.358,16,157,307,18-05-2020,17:57:3
5ec22961a5533967a888db87,46,male,0,2,24,Clear_not_profit_side,low_enforcement,10,0,-,left,16,9,500,1.45,right,right,1,20,1,0.057,12,291,999,18-05-2020,18:28:20
5ec22961a5533967a888db87,46,male,1,2,25,Ambigous_left,no_enforcement2,0,0,-,right,11,14,500,1.45,left,right,2,1,0,0.145,16,157,307,18-05-2020,17:57:3
5ec22961a5533967a888db87,46,male,0,2,25,Ambigous_right,low_enforcement,10,0,-,left,14,11,500,1.45,right,right,1,20,1,0.107,12,291,999,18-05-2020,18:28:20
5ec22961a5533967a888db87,46,male,1,2,26,Clear_not_profit_side,no_enforcement2,0,0,-,right,9,16,500,1.45,left,left,1,2,1,0.233,16,157,307,18-05-2020,17:57:3
5ec22961a5533967a888db87,46,male,0,2,26,Clear_not_profit_side,low_enforcement,10,0,-,left,16,9,500,1.45,right,right,1,20,1,0.23,12,291,999,18-05-2020,18:28:20
5ec22961a5533967a888db87,46,male,1,2,27,Clear_profit_side,no_enforcement2,0,0,-,right,16,9,500,1.45,right,right,2,1,1,0.118,16,157,307,18-05-2020,17:57:3
5ec22961a5533967a888db87,46,male,0,2,27,Ambigous_left,low_enforcement,10,0,-,left,11,14,500,1.45,left,left,20,1,1,0.153,12,291,999,18-05-2020,18:28:20
5ec22961a5533967a888db87,46,male,1,2,28,Clear_not_profit_side,no_enforcement2,0,0,-,right,9,16,500,1.45,left,left,1,2,1,0.147,16,157,307,18-05-2020,17:57:3
5ec22961a5533967a888db87,46,male,0,2,28,Clear_not_profit_side,low_enforcement,10,0,-,left,16,9,500,1.45,right,right,1,20,1,0.052,12,291,999,18-05-2020,18:28:20
5ec22961a5533967a888db87,46,male,1,2,29,Clear_not_profit_side,no_enforcement2,0,0,-,right,9,16,500,1.45,left,left,1,2,1,0.13,16,157,307,18-05-2020,17:57:3
5ec22961a5533967a888db87,46,male,0,2,29,Ambigous_right,low_enforcement,10,0,-,left,14,11,500,1.45,right,right,1,20,1,0.045,12,291,999,18-05-2020,18:28:20
5ec22961a5533967a888db87,46,male,1,2,30,Ambigous_right,no_enforcement2,0,0,-,right,14,11,500,1.45,right,right,2,1,1,0.191,16,157,307,18-05-2020,17:57:3
5ec22961a5533967a888db87,46,male,0,2,30,Ambigous_right,low_enforcement,10,0,-,left,14,11,500,1.45,right,right,1,20,1,0.124,12,291,999,18-05-2020,18:28:20
5ec22961a5533967a888db87,46,male,1,2,31,Ambigous_left,no_enforcement2,0,0,-,right,11,14,500,1.45,left,right,2,1,0,0.179,16,157,307,18-05-2020,17:57:3
5ec22961a5533967a888db87,46,male,0,2,31,Clear_profit_side,low_enforcement,10,1,180,left,9,16,500,1.45,left,left,20,-179,1,0.173,12,291,999,18-05-2020,18:28:20
5ec22961a5533967a888db87,46,male,1,2,32,Clear_not_profit_side,no_enforcement2,0,0,-,right,9,16,500,1.45,left,left,1,2,1,0.171,16,157,307,18-05-2020,17:57:3
5ec22961a5533967a888db87,46,male,0,2,32,Clear_profit_side,low_enforcement,10,0,-,left,9,16,500,1.45,left,left,20,1,1,0.124,12,291,999,18-05-2020,18:28:20
5ec22961a5533967a888db87,46,male,1,2,33,Clear_not_profit_side,no_enforcement2,0,0,-,right,9,16,500,1.45,left,left,1,2,1,0.121,16,157,307,18-05-2020,17:57:3
5ec22961a5533967a888db87,46,male,0,2,33,Clear_profit_side,low_enforcement,10,0,-,left,9,16,500,1.45,left,left,20,1,1,0.107,12,291,999,18-05-2020,18:28:20
5ec22961a5533967a888db87,46,male,1,2,34,Ambigous_right,no_enforcement2,0,0,-,right,14,11,500,1.45,right,right,2,1,1,0.159,16,157,307,18-05-2020,17:57:3
5ec22961a5533967a888db87,46,male,0,2,34,Clear_profit_side,low_enforcement,10,0,-,left,9,16,500,1.45,left,left,20,1,1,0.12,12,291,999,18-05-2020,18:28:20
5ec22961a5533967a888db87,46,male,1,2,35,Ambigous_left,no_enforcement2,0,0,-,right,11,14,500,1.45,left,left,1,2,1,0.18,16,157,307,18-05-2020,17:57:3
5ec22961a5533967a888db87,46,male,0,2,35,Ambigous_left,low_enforcement,10,0,-,left,11,14,500,1.45,left,right,1,20,0,0.133,12,291,999,18-05-2020,18:28:20
5ec22961a5533967a888db87,46,male,1,2,36,Ambigous_left,no_enforcement2,0,0,-,right,11,14,500,1.45,left,left,1,2,1,0.138,16,157,307,18-05-2020,17:57:3
5ec22961a5533967a888db87,46,male,0,2,36,Ambigous_left,low_enforcement,10,0,-,left,11,14,500,1.45,left,left,20,1,1,0.157,12,291,999,18-05-2020,18:28:20
5ec22961a5533967a888db87,46,male,1,2,37,Clear_not_profit_side,no_enforcement2,0,0,-,right,9,16,500,1.45,left,left,1,2,1,0.127,16,157,307,18-05-2020,17:57:3
5ec22961a5533967a888db87,46,male,0,2,37,Clear_not_profit_side,low_enforcement,10,0,-,left,16,9,500,1.45,right,right,1,20,1,0.113,12,291,999,18-05-2020,18:28:20
5ec22961a5533967a888db87,46,male,1,2,38,Clear_profit_side,no_enforcement2,0,0,-,right,16,9,500,1.45,right,right,2,1,1,0.214,16,157,307,18-05-2020,17:57:3
5ec22961a5533967a888db87,46,male,0,2,38,Ambigous_right,low_enforcement,10,1,180,left,14,11,500,1.45,right,right,1,-160,1,81.7,12,291,999,18-05-2020,18:28:20
5ec22961a5533967a888db87,46,male,1,2,39,Clear_not_profit_side,no_enforcement2,0,0,-,right,9,16,500,1.45,left,left,1,2,1,0.155,16,157,307,18-05-2020,17:57:3
5ec22961a5533967a888db87,46,male,0,2,39,Ambigous_left,low_enforcement,10,0,-,left,11,14,500,1.45,left,left,20,1,1,0.151,12,291,999,18-05-2020,18:28:20
5ec22961a5533967a888db87,46,male,1,2,40,Clear_not_profit_side,no_enforcement2,0,0,-,right,9,16,500,1.45,left,right,2,1,0,0.215,16,157,307,18-05-2020,17:57:3
5ec22961a5533967a888db87,46,male,0,2,40,Ambigous_left,low_enforcement,10,0,-,left,11,14,500,1.45,left,left,20,1,1,0.205,12,291,999,18-05-2020,18:28:20
5ec22961a5533967a888db87,46,male,1,2,41,Ambigous_right,no_enforcement2,0,0,-,right,14,11,500,1.45,right,right,2,1,1,0.104,16,157,307,18-05-2020,17:57:3
5ec22961a5533967a888db87,46,male,0,2,41,Ambigous_right,low_enforcement,10,0,-,left,14,11,500,1.45,right,right,1,20,1,0.086,12,291,999,18-05-2020,18:28:20
5ec22961a5533967a888db87,46,male,1,2,42,Clear_not_profit_side,no_enforcement2,0,0,-,right,9,16,500,1.45,left,left,1,2,1,0.151,16,157,307,18-05-2020,17:57:3
5ec22961a5533967a888db87,46,male,0,2,42,Clear_not_profit_side,low_enforcement,10,0,-,left,16,9,500,1.45,right,right,1,20,1,0.043,12,291,999,18-05-2020,18:28:20
5ec22961a5533967a888db87,46,male,1,2,43,Clear_not_profit_side,no_enforcement2,0,0,-,right,9,16,500,1.45,left,left,1,2,1,0.144,16,157,307,18-05-2020,17:57:3
5ec22961a5533967a888db87,46,male,0,2,43,Ambigous_left,low_enforcement,10,1,180,left,11,14,500,1.45,left,left,20,-179,1,0.159,12,291,999,18-05-2020,18:28:20
5ec22961a5533967a888db87,46,male,1,2,44,Clear_profit_side,no_enforcement2,0,0,-,right,16,9,500,1.45,right,right,2,1,1,0.235,16,157,307,18-05-2020,17:57:3
5ec22961a5533967a888db87,46,male,0,2,44,Clear_profit_side,low_enforcement,10,0,-,left,9,16,500,1.45,left,left,20,1,1,0.505,12,291,999,18-05-2020,18:28:20
5ec22961a5533967a888db87,46,male,1,2,45,Ambigous_right,no_enforcement2,0,0,-,right,14,11,500,1.45,right,right,2,1,1,0.186,16,157,307,18-05-2020,17:57:3
5ec22961a5533967a888db87,46,male,0,2,45,Clear_not_profit_side,low_enforcement,10,0,-,left,16,9,500,1.45,right,right,1,20,1,0.098,12,291,999,18-05-2020,18:28:20
5ec22961a5533967a888db87,46,male,1,2,46,Ambigous_right,no_enforcement2,0,0,-,right,14,11,500,1.45,right,right,2,1,1,0.193,16,157,307,18-05-2020,17:57:3
5ec22961a5533967a888db87,46,male,0,2,46,Ambigous_right,low_enforcement,10,0,-,left,14,11,500,1.45,right,right,1,20,1,0.098,12,291,999,18-05-2020,18:28:20
5ec22961a5533967a888db87,46,male,1,2,47,Clear_not_profit_side,no_enforcement2,0,0,-,right,9,16,500,1.45,left,left,1,2,1,0.161,16,157,307,18-05-2020,17:57:3
5ec22961a5533967a888db87,46,male,0,2,47,Ambigous_right,low_enforcement,10,0,-,left,14,11,500,1.45,right,right,1,20,1,0.051,12,291,999,18-05-2020,18:28:20
5ec22961a5533967a888db87,46,male,1,2,48,Ambigous_right,no_enforcement2,0,0,-,right,14,11,500,1.45,right,right,2,1,1,0.19,16,157,307,18-05-2020,17:57:3
5ec22961a5533967a888db87,46,male,0,2,48,Ambigous_left,low_enforcement,10,0,-,left,11,14,500,1.45,left,left,20,1,1,0.138,12,291,999,18-05-2020,18:28:20
5ec22961a5533967a888db87,46,male,1,2,49,Ambigous_left,no_enforcement2,0,0,-,right,11,14,500,1.45,left,right,2,1,0,0.232,16,157,307,18-05-2020,17:57:3
5ec22961a5533967a888db87,46,male,0,2,49,Clear_not_profit_side,low_enforcement,10,1,180,left,16,9,500,1.45,right,right,1,-160,1,0.088,12,291,999,18-05-2020,18:28:20
5ec22961a5533967a888db87,46,male,1,2,50,Ambigous_left,no_enforcement2,0,0,-,right,11,14,500,1.45,left,left,1,2,1,0.207,16,157,307,18-05-2020,17:57:3
5ec22961a5533967a888db87,46,male,0,2,50,Ambigous_right,low_enforcement,10,0,-,left,14,11,500,1.45,right,right,1,20,1,0.109,12,291,999,18-05-2020,18:28:20
5ec22961a5533967a888db87,46,male,1,2,51,Clear_not_profit_side,no_enforcement2,0,0,-,right,9,16,500,1.45,left,left,1,2,1,0.147,16,157,307,18-05-2020,17:57:3
5ec22961a5533967a888db87,46,male,0,2,51,Clear_not_profit_side,low_enforcement,10,0,-,left,16,9,500,1.45,right,right,1,20,1,0.263,12,291,999,18-05-2020,18:28:20
5ec22961a5533967a888db87,46,male,1,2,52,Ambigous_left,no_enforcement2,0,0,-,right,11,14,500,1.45,left,left,1,2,1,0.129,16,157,307,18-05-2020,17:57:3
5ec22961a5533967a888db87,46,male,0,2,52,Ambigous_right,low_enforcement,10,1,180,left,14,11,500,1.45,right,right,1,-160,1,0.076,12,291,999,18-05-2020,18:28:20
5ec22961a5533967a888db87,46,male,1,2,53,Clear_not_profit_side,no_enforcement2,0,0,-,right,9,16,500,1.45,left,left,1,2,1,0.134,16,157,307,18-05-2020,17:57:3
5ec22961a5533967a888db87,46,male,0,2,53,Ambigous_right,low_enforcement,10,0,-,left,14,11,500,1.45,right,right,1,20,1,0.035,12,291,999,18-05-2020,18:28:20
5ec22961a5533967a888db87,46,male,1,2,54,Clear_not_profit_side,no_enforcement2,0,0,-,right,9,16,500,1.45,left,left,1,2,1,0.134,16,157,307,18-05-2020,17:57:3
5ec22961a5533967a888db87,46,male,0,2,54,Ambigous_left,low_enforcement,10,0,-,left,11,14,500,1.45,left,left,20,1,1,0.193,12,291,999,18-05-2020,18:28:20
5ec22961a5533967a888db87,46,male,1,2,55,Clear_profit_side,no_enforcement2,0,0,-,right,16,9,500,1.45,right,right,2,1,1,0.176,16,157,307,18-05-2020,17:57:3
5ec22961a5533967a888db87,46,male,0,2,55,Clear_not_profit_side,low_enforcement,10,0,-,left,16,9,500,1.45,right,right,1,20,1,0.109,12,291,999,18-05-2020,18:28:20
5ec22961a5533967a888db87,46,male,1,2,56,Clear_not_profit_side,no_enforcement2,0,0,-,right,9,16,500,1.45,left,left,1,2,1,0.163,16,157,307,18-05-2020,17:57:3
5ec22961a5533967a888db87,46,male,0,2,56,Ambigous_right,low_enforcement,10,0,-,left,14,11,500,1.45,right,right,1,20,1,0.185,12,291,999,18-05-2020,18:28:20
5ec22961a5533967a888db87,46,male,1,2,57,Ambigous_right,no_enforcement2,0,0,-,right,14,11,500,1.45,right,right,2,1,1,0.164,16,157,307,18-05-2020,17:57:3
5ec22961a5533967a888db87,46,male,0,2,57,Clear_profit_side,low_enforcement,10,0,-,left,9,16,500,1.45,left,left,20,1,1,0.131,12,291,999,18-05-2020,18:28:20
5ec22961a5533967a888db87,46,male,1,2,58,Clear_not_profit_side,no_enforcement2,0,0,-,right,9,16,500,1.45,left,left,1,2,1,0.158,16,157,307,18-05-2020,17:57:3
5ec22961a5533967a888db87,46,male,0,2,58,Ambigous_left,low_enforcement,10,1,180,left,11,14,500,1.45,left,right,-179,-160,0,0.198,12,291,999,18-05-2020,18:28:20
5ec22961a5533967a888db87,46,male,1,2,59,Clear_not_profit_side,no_enforcement2,0,0,-,right,9,16,500,1.45,left,left,1,2,1,0.121,16,157,307,18-05-2020,17:57:3
5ec22961a5533967a888db87,46,male,0,2,59,Clear_not_profit_side,low_enforcement,10,0,-,left,16,9,500,1.45,right,right,1,20,1,0.066,12,291,999,18-05-2020,18:28:20
5ec22961a5533967a888db87,46,male,1,2,60,Clear_profit_side,no_enforcement2,0,0,-,right,16,9,500,1.45,right,right,2,1,1,0.256,16,157,307,18-05-2020,17:57:3
5ec22961a5533967a888db87,46,male,0,2,60,Ambigous_left,low_enforcement,10,0,-,left,11,14,500,1.45,left,right,1,20,0,0.097,12,291,999,18-05-2020,18:28:20
5ec22961a5533967a888db87,46,male,1,2,61,Ambigous_left,no_enforcement2,0,0,-,right,11,14,500,1.45,left,right,2,1,0,0.173,16,157,307,18-05-2020,17:57:3
5ec22961a5533967a888db87,46,male,0,2,61,Ambigous_left,low_enforcement,10,0,-,left,11,14,500,1.45,left,right,1,20,0,0.1,12,291,999,18-05-2020,18:28:20
5ec22961a5533967a888db87,46,male,1,2,62,Ambigous_left,no_enforcement2,0,0,-,right,11,14,500,1.45,left,left,1,2,1,0.336,16,157,307,18-05-2020,17:57:3
5ec22961a5533967a888db87,46,male,0,2,62,Ambigous_right,low_enforcement,10,0,-,left,14,11,500,1.45,right,right,1,20,1,0.361,12,291,999,18-05-2020,18:28:20
5ec22961a5533967a888db87,46,male,1,2,63,Ambigous_right,no_enforcement2,0,0,-,right,14,11,500,1.45,right,right,2,1,1,0.2,16,157,307,18-05-2020,17:57:3
5ec22961a5533967a888db87,46,male,0,2,63,Clear_not_profit_side,low_enforcement,10,0,-,left,16,9,500,1.45,right,right,1,20,1,0.069,12,291,999,18-05-2020,18:28:20
5ec22961a5533967a888db87,46,male,1,2,64,Clear_profit_side,no_enforcement2,0,0,-,right,16,9,500,1.45,right,right,2,1,1,0.114,16,157,307,18-05-2020,17:57:3
5ec22961a5533967a888db87,46,male,0,2,64,Ambigous_right,low_enforcement,10,0,-,left,14,11,500,1.45,right,right,1,20,1,0.069,12,291,999,18-05-2020,18:28:20
5ec22961a5533967a888db87,46,male,1,2,65,Clear_profit_side,no_enforcement2,0,0,-,right,16,9,500,1.45,right,right,2,1,1,0.091,16,157,307,18-05-2020,17:57:3
5ec22961a5533967a888db87,46,male,0,2,65,Clear_not_profit_side,low_enforcement,10,0,-,left,16,9,500,1.45,right,right,1,20,1,0.088,12,291,999,18-05-2020,18:28:20
5ec22961a5533967a888db87,46,male,1,2,66,Clear_not_profit_side,no_enforcement2,0,0,-,right,9,16,500,1.45,left,right,2,1,0,0.184,16,157,307,18-05-2020,17:57:3
5ec22961a5533967a888db87,46,male,0,2,66,Ambigous_right,low_enforcement,10,0,-,left,14,11,500,1.45,right,right,1,20,1,0.106,12,291,999,18-05-2020,18:28:20
5ec22961a5533967a888db87,46,male,1,2,67,Ambigous_right,no_enforcement2,0,0,-,right,14,11,500,1.45,right,right,2,1,1,0.133,16,157,307,18-05-2020,17:57:3
5ec22961a5533967a888db87,46,male,0,2,67,Ambigous_right,low_enforcement,10,0,-,left,14,11,500,1.45,right,right,1,20,1,0.1,12,291,999,18-05-2020,18:28:20
5ec22961a5533967a888db87,46,male,1,2,68,Ambigous_left,no_enforcement2,0,0,-,right,11,14,500,1.45,left,right,2,1,0,0.136,16,157,307,18-05-2020,17:57:3
5ec22961a5533967a888db87,46,male,0,2,68,Ambigous_left,low_enforcement,10,0,-,left,11,14,500,1.45,left,left,20,1,1,0.146,12,291,999,18-05-2020,18:28:20
5ec22961a5533967a888db87,46,male,1,2,69,Clear_profit_side,no_enforcement2,0,0,-,right,16,9,500,1.45,right,right,2,1,1,0.109,16,157,307,18-05-2020,17:57:3
5ec22961a5533967a888db87,46,male,0,2,69,Clear_not_profit_side,low_enforcement,10,0,-,left,16,9,500,1.45,right,right,1,20,1,0.119,12,291,999,18-05-2020,18:28:20
5ec22961a5533967a888db87,46,male,1,2,70,Ambigous_right,no_enforcement2,0,0,-,right,14,11,500,1.45,right,right,2,1,1,0.18,16,157,307,18-05-2020,17:57:3
5ec22961a5533967a888db87,46,male,0,2,70,Clear_profit_side,low_enforcement,10,0,-,left,9,16,500,1.45,left,left,20,1,1,0.139,12,291,999,18-05-2020,18:28:20
5ec22961a5533967a888db87,46,male,1,2,71,Ambigous_right,no_enforcement2,0,0,-,right,14,11,500,1.45,right,right,2,1,1,0.113,16,157,307,18-05-2020,17:57:3
5ec22961a5533967a888db87,46,male,0,2,71,Clear_profit_side,low_enforcement,10,0,-,left,9,16,500,1.45,left,left,20,1,1,0.123,12,291,999,18-05-2020,18:28:20
5ec22961a5533967a888db87,46,male,1,2,72,Ambigous_left,no_enforcement2,0,0,-,right,11,14,500,1.45,left,left,1,2,1,0.227,16,157,307,18-05-2020,17:57:3
5ec22961a5533967a888db87,46,male,0,2,72,Clear_profit_side,low_enforcement,10,0,-,left,9,16,500,1.45,left,left,20,1,1,0.126,12,291,999,18-05-2020,18:28:20
5ec22961a5533967a888db87,46,male,1,2,73,Clear_not_profit_side,no_enforcement2,0,0,-,right,9,16,500,1.45,left,left,1,2,1,0.13,16,157,307,18-05-2020,17:57:3
5ec22961a5533967a888db87,46,male,0,2,73,Clear_profit_side,low_enforcement,10,0,-,left,9,16,500,1.45,left,left,20,1,1,0.145,12,291,999,18-05-2020,18:28:20
5ec22961a5533967a888db87,46,male,1,2,74,Ambigous_left,no_enforcement2,0,0,-,right,11,14,500,1.45,left,left,1,2,1,0.111,16,157,307,18-05-2020,17:57:3
5ec22961a5533967a888db87,46,male,0,2,74,Ambigous_left,low_enforcement,10,1,180,left,11,14,500,1.45,left,left,20,-179,1,0.135,12,291,999,18-05-2020,18:28:20
5ec22961a5533967a888db87,46,male,1,2,75,Ambigous_right,no_enforcement2,0,0,-,right,14,11,500,1.45,right,right,2,1,1,0.243,16,157,307,18-05-2020,17:57:3
5ec22961a5533967a888db87,46,male,0,2,75,Clear_not_profit_side,low_enforcement,10,0,-,left,16,9,500,1.45,right,right,1,20,1,0.158,12,291,999,18-05-2020,18:28:20
5ec22961a5533967a888db87,46,male,1,2,76,Ambigous_right,no_enforcement2,0,0,-,right,14,11,500,1.45,right,right,2,1,1,0.118,16,157,307,18-05-2020,17:57:3
5ec22961a5533967a888db87,46,male,0,2,76,Clear_profit_side,low_enforcement,10,0,-,left,9,16,500,1.45,left,left,20,1,1,0.134,12,291,999,18-05-2020,18:28:20
5ec22961a5533967a888db87,46,male,1,2,77,Clear_profit_side,no_enforcement2,0,0,-,right,16,9,500,1.45,right,right,2,1,1,0.133,16,157,307,18-05-2020,17:57:3
5ec22961a5533967a888db87,46,male,0,2,77,Clear_profit_side,low_enforcement,10,0,-,left,9,16,500,1.45,left,left,20,1,1,0.14,12,291,999,18-05-2020,18:28:20
5ec22961a5533967a888db87,46,male,1,2,78,Clear_not_profit_side,no_enforcement2,0,0,-,right,9,16,500,1.45,left,left,1,2,1,0.163,16,157,307,18-05-2020,17:57:3
5ec22961a5533967a888db87,46,male,0,2,78,Clear_profit_side,low_enforcement,10,0,-,left,9,16,500,1.45,left,left,20,1,1,0.138,12,291,999,18-05-2020,18:28:20
5ec22961a5533967a888db87,46,male,1,2,79,Clear_profit_side,no_enforcement2,0,0,-,right,16,9,500,1.45,right,right,2,1,1,0.159,16,157,307,18-05-2020,17:57:3
5ec22961a5533967a888db87,46,male,0,2,79,Ambigous_right,low_enforcement,10,0,-,left,14,11,500,1.45,right,right,1,20,1,0.084,12,291,999,18-05-2020,18:28:20
5ec22961a5533967a888db87,46,male,1,2,80,Ambigous_left,no_enforcement2,0,0,-,right,11,14,500,1.45,left,right,2,1,0,0.131,16,157,307,18-05-2020,17:57:3
5ec22961a5533967a888db87,46,male,0,2,80,Ambigous_right,low_enforcement,10,0,-,left,14,11,500,1.45,right,right,1,20,1,0.101,12,291,999,18-05-2020,18:28:20
5ec22961a5533967a888db87,46,male,1,2,81,Ambigous_left,no_enforcement2,0,0,-,right,11,14,500,1.45,left,right,2,1,0,0.13,16,157,307,18-05-2020,17:57:3
5ec22961a5533967a888db87,46,male,0,2,81,Clear_not_profit_side,low_enforcement,10,0,-,left,16,9,500,1.45,right,right,1,20,1,0.235,12,291,999,18-05-2020,18:28:20
5ec22961a5533967a888db87,46,male,1,2,82,Clear_profit_side,no_enforcement2,0,0,-,right,16,9,500,1.45,right,right,2,1,1,0.125,16,157,307,18-05-2020,17:57:3
5ec22961a5533967a888db87,46,male,0,2,82,Clear_not_profit_side,low_enforcement,10,0,-,left,16,9,500,1.45,right,right,1,20,1,0.235,12,291,999,18-05-2020,18:28:20
5ec22961a5533967a888db87,46,male,1,2,83,Ambigous_right,no_enforcement2,0,0,-,right,14,11,500,1.45,right,right,2,1,1,0.115,16,157,307,18-05-2020,17:57:3
5ec22961a5533967a888db87,46,male,0,2,83,Ambigous_left,low_enforcement,10,0,-,left,11,14,500,1.45,left,right,1,20,0,0.11,12,291,999,18-05-2020,18:28:20
5ec22961a5533967a888db87,46,male,1,2,84,Clear_not_profit_side,no_enforcement2,0,0,-,right,9,16,500,1.45,left,left,1,2,1,0.226,16,157,307,18-05-2020,17:57:3
5ec22961a5533967a888db87,46,male,0,2,84,Ambigous_left,low_enforcement,10,0,-,left,11,14,500,1.45,left,right,1,20,0,0.134,12,291,999,18-05-2020,18:28:20
5ec22961a5533967a888db87,46,male,1,2,85,Ambigous_right,no_enforcement2,0,0,-,right,14,11,500,1.45,right,right,2,1,1,0.149,16,157,307,18-05-2020,17:57:3
5ec22961a5533967a888db87,46,male,0,2,85,Clear_profit_side,low_enforcement,10,0,-,left,9,16,500,1.45,left,left,20,1,1,0.16,12,291,999,18-05-2020,18:28:20
5ec22961a5533967a888db87,46,male,1,2,86,Clear_not_profit_side,no_enforcement2,0,0,-,right,9,16,500,1.45,left,left,1,2,1,0.171,16,157,307,18-05-2020,17:57:3
5ec22961a5533967a888db87,46,male,0,2,86,Clear_not_profit_side,low_enforcement,10,0,-,left,16,9,500,1.45,right,right,1,20,1,0.111,12,291,999,18-05-2020,18:28:20
5ec22961a5533967a888db87,46,male,1,2,87,Clear_profit_side,no_enforcement2,0,0,-,right,16,9,500,1.45,right,right,2,1,1,0.138,16,157,307,18-05-2020,17:57:3
5ec22961a5533967a888db87,46,male,0,2,87,Clear_not_profit_side,low_enforcement,10,0,-,left,16,9,500,1.45,right,right,1,20,1,12.701,12,291,999,18-05-2020,18:28:20
5ec22961a5533967a888db87,46,male,1,2,88,Ambigous_right,no_enforcement2,0,0,-,right,14,11,500,1.45,right,right,2,1,1,0.121,16,157,307,18-05-2020,17:57:3
5ec22961a5533967a888db87,46,male,0,2,88,Ambigous_right,low_enforcement,10,0,-,left,14,11,500,1.45,right,right,1,20,1,0.126,12,291,999,18-05-2020,18:28:20
5ec22961a5533967a888db87,46,male,1,2,89,Ambigous_left,no_enforcement2,0,0,-,right,11,14,500,1.45,left,right,2,1,0,0.137,16,157,307,18-05-2020,17:57:3
5ec22961a5533967a888db87,46,male,0,2,89,Ambigous_left,low_enforcement,10,1,180,left,11,14,500,1.45,left,left,20,-179,1,0.315,12,291,999,18-05-2020,18:28:20
5ec22961a5533967a888db87,46,male,1,2,90,Ambigous_right,no_enforcement2,0,0,-,right,14,11,500,1.45,right,right,2,1,1,0.125,16,157,307,18-05-2020,17:57:3
5ec22961a5533967a888db87,46,male,0,2,90,Ambigous_left,low_enforcement,10,0,-,left,11,14,500,1.45,left,left,20,1,1,0.169,12,291,999,18-05-2020,18:28:20
5ec22961a5533967a888db87,46,male,1,2,91,Clear_not_profit_side,no_enforcement2,0,0,-,right,9,16,500,1.45,left,left,1,2,1,0.173,16,157,307,18-05-2020,17:57:3
5ec22961a5533967a888db87,46,male,0,2,91,Clear_not_profit_side,low_enforcement,10,0,-,left,16,9,500,1.45,right,right,1,20,1,0.171,12,291,999,18-05-2020,18:28:20
5ec22961a5533967a888db87,46,male,1,2,92,Clear_not_profit_side,no_enforcement2,0,0,-,right,9,16,500,1.45,left,left,1,2,1,0.143,16,157,307,18-05-2020,17:57:3
5ec22961a5533967a888db87,46,male,0,2,92,Ambigous_right,low_enforcement,10,0,-,left,14,11,500,1.45,right,right,1,20,1,0.059,12,291,999,18-05-2020,18:28:20
5ec22961a5533967a888db87,46,male,1,2,93,Ambigous_right,no_enforcement2,0,0,-,right,14,11,500,1.45,right,right,2,1,1,0.179,16,157,307,18-05-2020,17:57:3
5ec22961a5533967a888db87,46,male,0,2,93,Clear_not_profit_side,low_enforcement,10,0,-,left,16,9,500,1.45,right,right,1,20,1,0.339,12,291,999,18-05-2020,18:28:20
5ec22961a5533967a888db87,46,male,1,2,94,Ambigous_left,no_enforcement2,0,0,-,right,11,14,500,1.45,left,left,1,2,1,0.246,16,157,307,18-05-2020,17:57:3
5ec22961a5533967a888db87,46,male,0,2,94,Clear_not_profit_side,low_enforcement,10,0,-,left,16,9,500,1.45,right,right,1,20,1,0.024,12,291,999,18-05-2020,18:28:20
5ec22961a5533967a888db87,46,male,1,2,95,Ambigous_left,no_enforcement2,0,0,-,right,11,14,500,1.45,left,right,2,1,0,0.156,16,157,307,18-05-2020,17:57:3
5ec22961a5533967a888db87,46,male,0,2,95,Ambigous_right,low_enforcement,10,0,-,left,14,11,500,1.45,right,right,1,20,1,0.038,12,291,999,18-05-2020,18:28:20
5ec22961a5533967a888db87,46,male,1,2,96,Ambigous_right,no_enforcement2,0,0,-,right,14,11,500,1.45,right,right,2,1,1,0.14,16,157,307,18-05-2020,17:57:3
5ec22961a5533967a888db87,46,male,0,2,96,Clear_not_profit_side,low_enforcement,10,0,-,left,16,9,500,1.45,right,right,1,20,1,0.215,12,291,999,18-05-2020,18:28:20
5ec22961a5533967a888db87,46,male,1,2,97,Ambigous_right,no_enforcement2,0,0,-,right,14,11,500,1.45,right,right,2,1,1,0.204,16,157,307,18-05-2020,17:57:3
5ec22961a5533967a888db87,46,male,0,2,97,Clear_not_profit_side,low_enforcement,10,0,-,left,16,9,500,1.45,right,right,1,20,1,0.028,12,291,999,18-05-2020,18:28:20
5ec22961a5533967a888db87,46,male,1,2,98,Clear_not_profit_side,no_enforcement2,0,0,-,right,9,16,500,1.45,left,left,1,2,1,0.184,16,157,307,18-05-2020,17:57:3
5ec22961a5533967a888db87,46,male,0,2,98,Clear_not_profit_side,low_enforcement,10,0,-,left,16,9,500,1.45,right,right,1,20,1,0.11,12,291,999,18-05-2020,18:28:20
5ec22961a5533967a888db87,46,male,1,2,99,Ambigous_right,no_enforcement2,0,0,-,right,14,11,500,1.45,right,right,2,1,1,0.153,16,157,307,18-05-2020,17:57:3
5ec22961a5533967a888db87,46,male,0,2,99,Ambigous_right,low_enforcement,10,0,-,left,14,11,500,1.45,right,right,1,20,1,0.104,12,291,999,18-05-2020,18:28:20
5ec22961a5533967a888db87,46,male,1,2,100,Clear_profit_side,no_enforcement2,0,0,-,right,16,9,500,1.45,right,right,2,1,1,0.134,16,157,307,18-05-2020,17:57:3
5ec22961a5533967a888db87,46,male,0,2,100,Ambigous_left,low_enforcement,10,0,-,left,11,14,500,1.45,left,right,1,20,0,0.121,12,291,999,18-05-2020,18:28:20
