user_id,age,gender,attention,block_number,trial_number,trial_type,conditions,p_inspection,inspection,fine_size,profitable_side,points_right,points_left,exchange_ratio,basic_payment,true_side,choice,trial_payoff,alternative_payoff,choice_correct,rt_choice,block_errors,block_payoff,final_payoff,date,time
5aaa7bde56c51000018cc7b5,27,female,1,1,1,Ambigous_left,no_enforcement2,0,0,-,left,11,14,500,1.45,left,left,2,1,1,0.405,6,139,278,18/05/2020,17:50:04
5aaa7bde56c51000018cc7b5,27,female,1,1,2,Clear_not_profit_side,no_enforcement2,0,0,-,left,16,9,500,1.45,right,right,1,2,1,0.235,6,139,278,18/05/2020,17:50:04
5aaa7bde56c51000018cc7b5,27,female,1,1,3,Ambigous_right,no_enforcement2,0,0,-,left,14,11,500,1.45,right,left,2,1,0,0.468,6,139,278,18/05/2020,17:50:04
5aaa7bde56c51000018cc7b5,27,female,1,1,4,Ambigous_left,no_enforcement2,0,0,-,left,11,14,500,1.45,left,left,2,1,1,0.239,6,139,278,18/05/2020,17:50:04
5aaa7bde56c51000018cc7b5,27,female,1,1,5,Clear_not_profit_side,no_enforcement2,0,0,-,left,16,9,500,1.45,right,right,1,2,1,0.192,6,139,278,18/05/2020,17:50:04
5aaa7bde56c51000018cc7b5,27,female,1,1,6,Clear_profit_side,no_enforcement2,0,0,-,left,9,16,500,1.45,left,left,2,1,1,0.282,6,139,278,18/05/2020,17:50:04
5aaa7bde56c51000018cc7b5,27,female,1,1,7,Ambigous_left,no_enforcement2,0,0,-,left,11,14,500,1.45,left,right,1,2,0,0.149,6,139,278,18/05/2020,17:50:04
5aaa7bde56c51000018cc7b5,27,female,1,1,8,Ambigous_right,no_enforcement2,0,0,-,left,14,11,500,1.45,right,right,1,2,1,0.171,6,139,278,18/05/2020,17:50:04
5aaa7bde56c51000018cc7b5,27,female,1,1,9,Ambigous_right,no_enforcement2,0,0,-,left,14,11,500,1.45,right,right,1,2,1,0.167,6,139,278,18/05/2020,17:50:04
5aaa7bde56c51000018cc7b5,27,female,1,1,10,Clear_profit_side,no_enforcement2,0,0,-,left,9,16,500,1.45,left,left,2,1,1,0.178,6,139,278,18/05/2020,17:50:04
5aaa7bde56c51000018cc7b5,27,female,1,1,11,Clear_not_profit_side,no_enforcement2,0,0,-,left,16,9,500,1.45,right,right,1,2,1,0.153,6,139,278,18/05/2020,17:50:04
5aaa7bde56c51000018cc7b5,27,female,1,1,12,Ambigous_right,no_enforcement2,0,0,-,left,14,11,500,1.45,right,right,1,2,1,0.146,6,139,278,18/05/2020,17:50:04
5aaa7bde56c51000018cc7b5,27,female,1,1,13,Ambigous_right,no_enforcement2,0,0,-,left,14,11,500,1.45,right,left,2,1,0,0.148,6,139,278,18/05/2020,17:50:04
5aaa7bde56c51000018cc7b5,27,female,1,1,14,Clear_not_profit_side,no_enforcement2,0,0,-,left,16,9,500,1.45,right,right,1,2,1,0.131,6,139,278,18/05/2020,17:50:04
5aaa7bde56c51000018cc7b5,27,female,1,1,15,Clear_not_profit_side,no_enforcement2,0,0,-,left,16,9,500,1.45,right,right,1,2,1,0.135,6,139,278,18/05/2020,17:50:04
5aaa7bde56c51000018cc7b5,27,female,1,1,16,Ambigous_left,no_enforcement2,0,0,-,left,11,14,500,1.45,left,left,2,1,1,0.221,6,139,278,18/05/2020,17:50:04
5aaa7bde56c51000018cc7b5,27,female,1,1,17,Ambigous_right,no_enforcement2,0,0,-,left,14,11,500,1.45,right,right,1,2,1,0.124,6,139,278,18/05/2020,17:50:04
5aaa7bde56c51000018cc7b5,27,female,1,1,18,Clear_profit_side,no_enforcement2,0,0,-,left,9,16,500,1.45,left,left,2,1,1,0.159,6,139,278,18/05/2020,17:50:04
5aaa7bde56c51000018cc7b5,27,female,1,1,19,Ambigous_left,no_enforcement2,0,0,-,left,11,14,500,1.45,left,left,2,1,1,0.176,6,139,278,18/05/2020,17:50:04
5aaa7bde56c51000018cc7b5,27,female,1,1,20,Clear_not_profit_side,no_enforcement2,0,0,-,left,16,9,500,1.45,right,right,1,2,1,0.143,6,139,278,18/05/2020,17:50:04
5aaa7bde56c51000018cc7b5,27,female,1,1,21,Ambigous_left,no_enforcement2,0,0,-,left,11,14,500,1.45,left,left,2,1,1,0.153,6,139,278,18/05/2020,17:50:04
5aaa7bde56c51000018cc7b5,27,female,1,1,22,Ambigous_right,no_enforcement2,0,0,-,left,14,11,500,1.45,right,right,1,2,1,0.115,6,139,278,18/05/2020,17:50:04
5aaa7bde56c51000018cc7b5,27,female,1,1,23,Clear_not_profit_side,no_enforcement2,0,0,-,left,16,9,500,1.45,right,right,1,2,1,0.109,6,139,278,18/05/2020,17:50:04
5aaa7bde56c51000018cc7b5,27,female,1,1,24,Clear_not_profit_side,no_enforcement2,0,0,-,left,16,9,500,1.45,right,right,1,2,1,0.144,6,139,278,18/05/2020,17:50:04
5aaa7bde56c51000018cc7b5,27,female,1,1,25,Ambigous_left,no_enforcement2,0,0,-,left,11,14,500,1.45,left,left,2,1,1,0.151,6,139,278,18/05/2020,17:50:04
5aaa7bde56c51000018cc7b5,27,female,1,1,26,Clear_not_profit_side,no_enforcement2,0,0,-,left,16,9,500,1.45,right,right,1,2,1,0.153,6,139,278,18/05/2020,17:50:04
5aaa7bde56c51000018cc7b5,27,female,1,1,27,Clear_profit_side,no_enforcement2,0,0,-,left,9,16,500,1.45,left,left,2,1,1,0.146,6,139,278,18/05/2020,17:50:04
5aaa7bde56c51000018cc7b5,27,female,1,1,28,Clear_profit_side,no_enforcement2,0,0,-,left,9,16,500,1.45,left,left,2,1,1,0.144,6,139,278,18/05/2020,17:50:04
5aaa7bde56c51000018cc7b5,27,female,1,1,29,Ambigous_left,no_enforcement2,0,0,-,left,11,14,500,1.45,left,right,1,2,0,0.116,6,139,278,18/05/2020,17:50:04
5aaa7bde56c51000018cc7b5,27,female,1,1,30,Ambigous_right,no_enforcement2,0,0,-,left,14,11,500,1.45,right,right,1,2,1,0.137,6,139,278,18/05/2020,17:50:04
5aaa7bde56c51000018cc7b5,27,female,1,1,31,Ambigous_left,no_enforcement2,0,0,-,left,11,14,500,1.45,left,left,2,1,1,0.134,6,139,278,18/05/2020,17:50:04
5aaa7bde56c51000018cc7b5,27,female,1,1,32,Clear_not_profit_side,no_enforcement2,0,0,-,left,16,9,500,1.45,right,right,1,2,1,0.129,6,139,278,18/05/2020,17:50:04
5aaa7bde56c51000018cc7b5,27,female,1,1,33,Ambigous_right,no_enforcement2,0,0,-,left,14,11,500,1.45,right,right,1,2,1,0.148,6,139,278,18/05/2020,17:50:04
5aaa7bde56c51000018cc7b5,27,female,1,1,34,Clear_not_profit_side,no_enforcement2,0,0,-,left,16,9,500,1.45,right,right,1,2,1,0.099,6,139,278,18/05/2020,17:50:04
5aaa7bde56c51000018cc7b5,27,female,1,1,35,Ambigous_left,no_enforcement2,0,0,-,left,11,14,500,1.45,left,left,2,1,1,0.198,6,139,278,18/05/2020,17:50:04
5aaa7bde56c51000018cc7b5,27,female,1,1,36,Ambigous_left,no_enforcement2,0,0,-,left,11,14,500,1.45,left,right,1,2,0,0.135,6,139,278,18/05/2020,17:50:04
5aaa7bde56c51000018cc7b5,27,female,1,1,37,Clear_profit_side,no_enforcement2,0,0,-,left,9,16,500,1.45,left,left,2,1,1,0.14,6,139,278,18/05/2020,17:50:04
5aaa7bde56c51000018cc7b5,27,female,1,1,38,Clear_profit_side,no_enforcement2,0,0,-,left,9,16,500,1.45,left,left,2,1,1,0.103,6,139,278,18/05/2020,17:50:04
5aaa7bde56c51000018cc7b5,27,female,1,1,39,Ambigous_left,no_enforcement2,0,0,-,left,11,14,500,1.45,left,left,2,1,1,0.17,6,139,278,18/05/2020,17:50:04
5aaa7bde56c51000018cc7b5,27,female,1,1,40,Clear_not_profit_side,no_enforcement2,0,0,-,left,16,9,500,1.45,right,right,1,2,1,0.101,6,139,278,18/05/2020,17:50:04
5aaa7bde56c51000018cc7b5,27,female,1,1,41,Clear_not_profit_side,no_enforcement2,0,0,-,left,16,9,500,1.45,right,right,1,2,1,0.118,6,139,278,18/05/2020,17:50:04
5aaa7bde56c51000018cc7b5,27,female,1,1,42,Clear_not_profit_side,no_enforcement2,0,0,-,left,16,9,500,1.45,right,right,1,2,1,0.109,6,139,278,18/05/2020,17:50:04
5aaa7bde56c51000018cc7b5,27,female,1,1,43,Ambigous_left,no_enforcement2,0,0,-,left,11,14,500,1.45,left,left,2,1,1,0.143,6,139,278,18/05/2020,17:50:04
5aaa7bde56c51000018cc7b5,27,female,1,1,44,Ambigous_right,no_enforcement2,0,0,-,left,14,11,500,1.45,right,right,1,2,1,0.154,6,139,278,18/05/2020,17:50:04
5aaa7bde56c51000018cc7b5,27,female,1,1,45,Ambigous_left,no_enforcement2,0,0,-,left,11,14,500,1.45,left,left,2,1,1,0.13,6,139,278,18/05/2020,17:50:04
5aaa7bde56c51000018cc7b5,27,female,1,1,46,Clear_profit_side,no_enforcement2,0,0,-,left,9,16,500,1.45,left,left,2,1,1,0.152,6,139,278,18/05/2020,17:50:04
5aaa7bde56c51000018cc7b5,27,female,1,1,47,Clear_not_profit_side,no_enforcement2,0,0,-,left,16,9,500,1.45,right,right,1,2,1,0.094,6,139,278,18/05/2020,17:50:04
5aaa7bde56c51000018cc7b5,27,female,1,1,48,Clear_not_profit_side,no_enforcement2,0,0,-,left,16,9,500,1.45,right,right,1,2,1,0.162,6,139,278,18/05/2020,17:50:04
5aaa7bde56c51000018cc7b5,27,female,1,1,49,Ambigous_left,no_enforcement2,0,0,-,left,11,14,500,1.45,left,left,2,1,1,0.163,6,139,278,18/05/2020,17:50:04
5aaa7bde56c51000018cc7b5,27,female,1,1,50,Clear_profit_side,no_enforcement2,0,0,-,left,9,16,500,1.45,left,left,2,1,1,0.156,6,139,278,18/05/2020,17:50:04
5aaa7bde56c51000018cc7b5,27,female,1,1,51,Clear_not_profit_side,no_enforcement2,0,0,-,left,16,9,500,1.45,right,right,1,2,1,0.151,6,139,278,18/05/2020,17:50:04
5aaa7bde56c51000018cc7b5,27,female,1,1,52,Clear_not_profit_side,no_enforcement2,0,0,-,left,16,9,500,1.45,right,right,1,2,1,0.156,6,139,278,18/05/2020,17:50:04
5aaa7bde56c51000018cc7b5,27,female,1,1,53,Ambigous_right,no_enforcement2,0,0,-,left,14,11,500,1.45,right,right,1,2,1,0.133,6,139,278,18/05/2020,17:50:04
5aaa7bde56c51000018cc7b5,27,female,1,1,54,Ambigous_left,no_enforcement2,0,0,-,left,11,14,500,1.45,left,left,2,1,1,0.215,6,139,278,18/05/2020,17:50:04
5aaa7bde56c51000018cc7b5,27,female,1,1,55,Clear_not_profit_side,no_enforcement2,0,0,-,left,16,9,500,1.45,right,right,1,2,1,0.108,6,139,278,18/05/2020,17:50:04
5aaa7bde56c51000018cc7b5,27,female,1,1,56,Ambigous_left,no_enforcement2,0,0,-,left,11,14,500,1.45,left,left,2,1,1,0.257,6,139,278,18/05/2020,17:50:04
5aaa7bde56c51000018cc7b5,27,female,1,1,57,Ambigous_left,no_enforcement2,0,0,-,left,11,14,500,1.45,left,right,1,2,0,0.128,6,139,278,18/05/2020,17:50:04
5aaa7bde56c51000018cc7b5,27,female,1,1,58,Ambigous_right,no_enforcement2,0,0,-,left,14,11,500,1.45,right,right,1,2,1,0.169,6,139,278,18/05/2020,17:50:04
5aaa7bde56c51000018cc7b5,27,female,1,1,59,Clear_not_profit_side,no_enforcement2,0,0,-,left,16,9,500,1.45,right,right,1,2,1,0.132,6,139,278,18/05/2020,17:50:04
5aaa7bde56c51000018cc7b5,27,female,1,1,60,Clear_not_profit_side,no_enforcement2,0,0,-,left,16,9,500,1.45,right,right,1,2,1,0.15,6,139,278,18/05/2020,17:50:04
5aaa7bde56c51000018cc7b5,27,female,1,1,61,Ambigous_right,no_enforcement2,0,0,-,left,14,11,500,1.45,right,right,1,2,1,0.156,6,139,278,18/05/2020,17:50:04
5aaa7bde56c51000018cc7b5,27,female,1,1,62,Ambigous_right,no_enforcement2,0,0,-,left,14,11,500,1.45,right,right,1,2,1,0.133,6,139,278,18/05/2020,17:50:04
5aaa7bde56c51000018cc7b5,27,female,1,1,63,Ambigous_left,no_enforcement2,0,0,-,left,11,14,500,1.45,left,left,2,1,1,0.145,6,139,278,18/05/2020,17:50:04
5aaa7bde56c51000018cc7b5,27,female,1,1,64,Ambigous_left,no_enforcement2,0,0,-,left,11,14,500,1.45,left,left,2,1,1,0.224,6,139,278,18/05/2020,17:50:04
5aaa7bde56c51000018cc7b5,27,female,1,1,65,Clear_profit_side,no_enforcement2,0,0,-,left,9,16,500,1.45,left,left,2,1,1,0.112,6,139,278,18/05/2020,17:50:04
5aaa7bde56c51000018cc7b5,27,female,1,1,66,Clear_not_profit_side,no_enforcement2,0,0,-,left,16,9,500,1.45,right,right,1,2,1,0.106,6,139,278,18/05/2020,17:50:04
5aaa7bde56c51000018cc7b5,27,female,1,1,67,Ambigous_left,no_enforcement2,0,0,-,left,11,14,500,1.45,left,left,2,1,1,0.158,6,139,278,18/05/2020,17:50:04
5aaa7bde56c51000018cc7b5,27,female,1,1,68,Ambigous_right,no_enforcement2,0,0,-,left,14,11,500,1.45,right,right,1,2,1,0.139,6,139,278,18/05/2020,17:50:04
5aaa7bde56c51000018cc7b5,27,female,1,1,69,Ambigous_right,no_enforcement2,0,0,-,left,14,11,500,1.45,right,right,1,2,1,0.102,6,139,278,18/05/2020,17:50:04
5aaa7bde56c51000018cc7b5,27,female,1,1,70,Ambigous_left,no_enforcement2,0,0,-,left,11,14,500,1.45,left,left,2,1,1,0.19,6,139,278,18/05/2020,17:50:04
5aaa7bde56c51000018cc7b5,27,female,1,1,71,Ambigous_right,no_enforcement2,0,0,-,left,14,11,500,1.45,right,right,1,2,1,0.102,6,139,278,18/05/2020,17:50:04
5aaa7bde56c51000018cc7b5,27,female,1,1,72,Clear_profit_side,no_enforcement2,0,0,-,left,9,16,500,1.45,left,left,2,1,1,0.14,6,139,278,18/05/2020,17:50:04
5aaa7bde56c51000018cc7b5,27,female,1,1,73,Clear_not_profit_side,no_enforcement2,0,0,-,left,16,9,500,1.45,right,right,1,2,1,0.117,6,139,278,18/05/2020,17:50:04
5aaa7bde56c51000018cc7b5,27,female,1,1,74,Ambigous_left,no_enforcement2,0,0,-,left,11,14,500,1.45,left,left,2,1,1,0.129,6,139,278,18/05/2020,17:50:04
5aaa7bde56c51000018cc7b5,27,female,1,1,75,Ambigous_right,no_enforcement2,0,0,-,left,14,11,500,1.45,right,right,1,2,1,0.109,6,139,278,18/05/2020,17:50:04
5aaa7bde56c51000018cc7b5,27,female,1,1,76,Clear_not_profit_side,no_enforcement2,0,0,-,left,16,9,500,1.45,right,right,1,2,1,0.091,6,139,278,18/05/2020,17:50:04
5aaa7bde56c51000018cc7b5,27,female,1,1,77,Ambigous_right,no_enforcement2,0,0,-,left,14,11,500,1.45,right,right,1,2,1,0.116,6,139,278,18/05/2020,17:50:04
5aaa7bde56c51000018cc7b5,27,female,1,1,78,Ambigous_right,no_enforcement2,0,0,-,left,14,11,500,1.45,right,right,1,2,1,0.132,6,139,278,18/05/2020,17:50:04
5aaa7bde56c51000018cc7b5,27,female,1,1,79,Clear_not_profit_side,no_enforcement2,0,0,-,left,16,9,500,1.45,right,right,1,2,1,0.096,6,139,278,18/05/2020,17:50:04
5aaa7bde56c51000018cc7b5,27,female,1,1,80,Clear_not_profit_side,no_enforcement2,0,0,-,left,16,9,500,1.45,right,right,1,2,1,0.108,6,139,278,18/05/2020,17:50:04
5aaa7bde56c51000018cc7b5,27,female,1,1,81,Ambigous_right,no_enforcement2,0,0,-,left,14,11,500,1.45,right,right,1,2,1,0.117,6,139,278,18/05/2020,17:50:04
5aaa7bde56c51000018cc7b5,27,female,1,1,82,Clear_not_profit_side,no_enforcement2,0,0,-,left,16,9,500,1.45,right,right,1,2,1,0.109,6,139,278,18/05/2020,17:50:04
5aaa7bde56c51000018cc7b5,27,female,1,1,83,Ambigous_left,no_enforcement2,0,0,-,left,11,14,500,1.45,left,left,2,1,1,0.221,6,139,278,18/05/2020,17:50:04
5aaa7bde56c51000018cc7b5,27,female,1,1,84,Ambigous_right,no_enforcement2,0,0,-,left,14,11,500,1.45,right,right,1,2,1,0.094,6,139,278,18/05/2020,17:50:04
5aaa7bde56c51000018cc7b5,27,female,1,1,85,Clear_not_profit_side,no_enforcement2,0,0,-,left,16,9,500,1.45,right,right,1,2,1,0.114,6,139,278,18/05/2020,17:50:04
5aaa7bde56c51000018cc7b5,27,female,1,1,86,Clear_profit_side,no_enforcement2,0,0,-,left,9,16,500,1.45,left,left,2,1,1,0.12,6,139,278,18/05/2020,17:50:04
5aaa7bde56c51000018cc7b5,27,female,1,1,87,Clear_not_profit_side,no_enforcement2,0,0,-,left,16,9,500,1.45,right,right,1,2,1,0.079,6,139,278,18/05/2020,17:50:04
5aaa7bde56c51000018cc7b5,27,female,1,1,88,Ambigous_right,no_enforcement2,0,0,-,left,14,11,500,1.45,right,right,1,2,1,0.188,6,139,278,18/05/2020,17:50:04
5aaa7bde56c51000018cc7b5,27,female,1,1,89,Clear_not_profit_side,no_enforcement2,0,0,-,left,16,9,500,1.45,right,right,1,2,1,0.13,6,139,278,18/05/2020,17:50:04
5aaa7bde56c51000018cc7b5,27,female,1,1,90,Ambigous_left,no_enforcement2,0,0,-,left,11,14,500,1.45,left,left,2,1,1,0.144,6,139,278,18/05/2020,17:50:04
5aaa7bde56c51000018cc7b5,27,female,1,1,91,Ambigous_right,no_enforcement2,0,0,-,left,14,11,500,1.45,right,right,1,2,1,0.106,6,139,278,18/05/2020,17:50:04
5aaa7bde56c51000018cc7b5,27,female,1,1,92,Clear_not_profit_side,no_enforcement2,0,0,-,left,16,9,500,1.45,right,right,1,2,1,0.125,6,139,278,18/05/2020,17:50:04
5aaa7bde56c51000018cc7b5,27,female,1,1,93,Clear_profit_side,no_enforcement2,0,0,-,left,9,16,500,1.45,left,left,2,1,1,0.201,6,139,278,18/05/2020,17:50:04
5aaa7bde56c51000018cc7b5,27,female,1,1,94,Clear_not_profit_side,no_enforcement2,0,0,-,left,16,9,500,1.45,right,right,1,2,1,0.159,6,139,278,18/05/2020,17:50:04
5aaa7bde56c51000018cc7b5,27,female,1,1,95,Clear_profit_side,no_enforcement2,0,0,-,left,9,16,500,1.45,left,left,2,1,1,0.113,6,139,278,18/05/2020,17:50:04
5aaa7bde56c51000018cc7b5,27,female,1,1,96,Clear_not_profit_side,no_enforcement2,0,0,-,left,16,9,500,1.45,right,right,1,2,1,0.088,6,139,278,18/05/2020,17:50:04
5aaa7bde56c51000018cc7b5,27,female,1,1,97,Clear_profit_side,no_enforcement2,0,0,-,left,9,16,500,1.45,left,left,2,1,1,0.101,6,139,278,18/05/2020,17:50:04
5aaa7bde56c51000018cc7b5,27,female,1,1,98,Clear_profit_side,no_enforcement2,0,0,-,left,9,16,500,1.45,left,left,2,1,1,0.095,6,139,278,18/05/2020,17:50:04
5aaa7bde56c51000018cc7b5,27,female,1,1,99,Ambigous_right,no_enforcement2,0,0,-,left,14,11,500,1.45,right,right,1,2,1,0.097,6,139,278,18/05/2020,17:50:04
5aaa7bde56c51000018cc7b5,27,female,1,1,100,Clear_not_profit_side,no_enforcement2,0,0,-,left,16,9,500,1.45,right,right,1,2,1,0.158,6,139,278,18/05/2020,17:50:04
5aaa7bde56c51000018cc7b5,27,female,1,2,1,Ambigous_left,no_enforcement2,0,0,-,left,11,14,500,1.45,left,left,2,1,1,0.119,4,139,278,18/05/2020,17:50:04
5aaa7bde56c51000018cc7b5,27,female,1,2,2,Ambigous_left,no_enforcement2,0,0,-,left,11,14,500,1.45,left,left,2,1,1,0.211,4,139,278,18/05/2020,17:50:04
5aaa7bde56c51000018cc7b5,27,female,1,2,3,Ambigous_right,no_enforcement2,0,0,-,left,14,11,500,1.45,right,right,1,2,1,0.096,4,139,278,18/05/2020,17:50:04
5aaa7bde56c51000018cc7b5,27,female,1,2,4,Clear_not_profit_side,no_enforcement2,0,0,-,left,16,9,500,1.45,right,right,1,2,1,0.096,4,139,278,18/05/2020,17:50:04
5aaa7bde56c51000018cc7b5,27,female,1,2,5,Ambigous_right,no_enforcement2,0,0,-,left,14,11,500,1.45,right,right,1,2,1,0.212,4,139,278,18/05/2020,17:50:04
5aaa7bde56c51000018cc7b5,27,female,1,2,6,Ambigous_left,no_enforcement2,0,0,-,left,11,14,500,1.45,left,left,2,1,1,0.082,4,139,278,18/05/2020,17:50:04
5aaa7bde56c51000018cc7b5,27,female,1,2,7,Ambigous_right,no_enforcement2,0,0,-,left,14,11,500,1.45,right,right,1,2,1,0.079,4,139,278,18/05/2020,17:50:04
5aaa7bde56c51000018cc7b5,27,female,1,2,8,Clear_not_profit_side,no_enforcement2,0,0,-,left,16,9,500,1.45,right,right,1,2,1,0.084,4,139,278,18/05/2020,17:50:04
5aaa7bde56c51000018cc7b5,27,female,1,2,9,Clear_profit_side,no_enforcement2,0,0,-,left,9,16,500,1.45,left,left,2,1,1,0.186,4,139,278,18/05/2020,17:50:04
5aaa7bde56c51000018cc7b5,27,female,1,2,10,Clear_not_profit_side,no_enforcement2,0,0,-,left,16,9,500,1.45,right,right,1,2,1,0.086,4,139,278,18/05/2020,17:50:04
5aaa7bde56c51000018cc7b5,27,female,1,2,11,Ambigous_right,no_enforcement2,0,0,-,left,14,11,500,1.45,right,right,1,2,1,0.088,4,139,278,18/05/2020,17:50:04
5aaa7bde56c51000018cc7b5,27,female,1,2,12,Clear_profit_side,no_enforcement2,0,0,-,left,9,16,500,1.45,left,left,2,1,1,0.128,4,139,278,18/05/2020,17:50:04
5aaa7bde56c51000018cc7b5,27,female,1,2,13,Clear_not_profit_side,no_enforcement2,0,0,-,left,16,9,500,1.45,right,right,1,2,1,0.116,4,139,278,18/05/2020,17:50:04
5aaa7bde56c51000018cc7b5,27,female,1,2,14,Ambigous_right,no_enforcement2,0,0,-,left,14,11,500,1.45,right,right,1,2,1,0.09,4,139,278,18/05/2020,17:50:04
5aaa7bde56c51000018cc7b5,27,female,1,2,15,Clear_not_profit_side,no_enforcement2,0,0,-,left,16,9,500,1.45,right,right,1,2,1,0.085,4,139,278,18/05/2020,17:50:04
5aaa7bde56c51000018cc7b5,27,female,1,2,16,Ambigous_left,no_enforcement2,0,0,-,left,11,14,500,1.45,left,left,2,1,1,0.26,4,139,278,18/05/2020,17:50:04
5aaa7bde56c51000018cc7b5,27,female,1,2,17,Ambigous_left,no_enforcement2,0,0,-,left,11,14,500,1.45,left,left,2,1,1,0.121,4,139,278,18/05/2020,17:50:04
5aaa7bde56c51000018cc7b5,27,female,1,2,18,Clear_profit_side,no_enforcement2,0,0,-,left,9,16,500,1.45,left,left,2,1,1,0.107,4,139,278,18/05/2020,17:50:04
5aaa7bde56c51000018cc7b5,27,female,1,2,19,Ambigous_left,no_enforcement2,0,0,-,left,11,14,500,1.45,left,right,1,2,0,0.132,4,139,278,18/05/2020,17:50:04
5aaa7bde56c51000018cc7b5,27,female,1,2,20,Clear_not_profit_side,no_enforcement2,0,0,-,left,16,9,500,1.45,right,right,1,2,1,0.098,4,139,278,18/05/2020,17:50:04
5aaa7bde56c51000018cc7b5,27,female,1,2,21,Clear_profit_side,no_enforcement2,0,0,-,left,9,16,500,1.45,left,left,2,1,1,0.106,4,139,278,18/05/2020,17:50:04
5aaa7bde56c51000018cc7b5,27,female,1,2,22,Clear_not_profit_side,no_enforcement2,0,0,-,left,16,9,500,1.45,right,right,1,2,1,0.088,4,139,278,18/05/2020,17:50:04
5aaa7bde56c51000018cc7b5,27,female,1,2,23,Clear_not_profit_side,no_enforcement2,0,0,-,left,16,9,500,1.45,right,right,1,2,1,0.158,4,139,278,18/05/2020,17:50:04
5aaa7bde56c51000018cc7b5,27,female,1,2,24,Ambigous_right,no_enforcement2,0,0,-,left,14,11,500,1.45,right,right,1,2,1,0.133,4,139,278,18/05/2020,17:50:04
5aaa7bde56c51000018cc7b5,27,female,1,2,25,Ambigous_left,no_enforcement2,0,0,-,left,11,14,500,1.45,left,left,2,1,1,0.133,4,139,278,18/05/2020,17:50:04
5aaa7bde56c51000018cc7b5,27,female,1,2,26,Clear_not_profit_side,no_enforcement2,0,0,-,left,16,9,500,1.45,right,right,1,2,1,0.091,4,139,278,18/05/2020,17:50:04
5aaa7bde56c51000018cc7b5,27,female,1,2,27,Clear_profit_side,no_enforcement2,0,0,-,left,9,16,500,1.45,left,left,2,1,1,0.108,4,139,278,18/05/2020,17:50:04
5aaa7bde56c51000018cc7b5,27,female,1,2,28,Clear_profit_side,no_enforcement2,0,0,-,left,9,16,500,1.45,left,left,2,1,1,0.123,4,139,278,18/05/2020,17:50:04
5aaa7bde56c51000018cc7b5,27,female,1,2,29,Ambigous_left,no_enforcement2,0,0,-,left,11,14,500,1.45,left,right,1,2,0,0.095,4,139,278,18/05/2020,17:50:04
5aaa7bde56c51000018cc7b5,27,female,1,2,30,Ambigous_left,no_enforcement2,0,0,-,left,11,14,500,1.45,left,left,2,1,1,0.108,4,139,278,18/05/2020,17:50:04
5aaa7bde56c51000018cc7b5,27,female,1,2,31,Clear_not_profit_side,no_enforcement2,0,0,-,left,16,9,500,1.45,right,right,1,2,1,0.084,4,139,278,18/05/2020,17:50:04
5aaa7bde56c51000018cc7b5,27,female,1,2,32,Clear_profit_side,no_enforcement2,0,0,-,left,9,16,500,1.45,left,left,2,1,1,0.106,4,139,278,18/05/2020,17:50:04
5aaa7bde56c51000018cc7b5,27,female,1,2,33,Clear_not_profit_side,no_enforcement2,0,0,-,left,16,9,500,1.45,right,right,1,2,1,0.113,4,139,278,18/05/2020,17:50:04
5aaa7bde56c51000018cc7b5,27,female,1,2,34,Ambigous_right,no_enforcement2,0,0,-,left,14,11,500,1.45,right,right,1,2,1,0.136,4,139,278,18/05/2020,17:50:04
5aaa7bde56c51000018cc7b5,27,female,1,2,35,Clear_not_profit_side,no_enforcement2,0,0,-,left,16,9,500,1.45,right,right,1,2,1,0.1,4,139,278,18/05/2020,17:50:04
5aaa7bde56c51000018cc7b5,27,female,1,2,36,Clear_not_profit_side,no_enforcement2,0,0,-,left,16,9,500,1.45,right,right,1,2,1,0.083,4,139,278,18/05/2020,17:50:04
5aaa7bde56c51000018cc7b5,27,female,1,2,37,Ambigous_left,no_enforcement2,0,0,-,left,11,14,500,1.45,left,left,2,1,1,0.147,4,139,278,18/05/2020,17:50:04
5aaa7bde56c51000018cc7b5,27,female,1,2,38,Ambigous_left,no_enforcement2,0,0,-,left,11,14,500,1.45,left,right,1,2,0,0.212,4,139,278,18/05/2020,17:50:04
5aaa7bde56c51000018cc7b5,27,female,1,2,39,Clear_not_profit_side,no_enforcement2,0,0,-,left,16,9,500,1.45,right,right,1,2,1,0.094,4,139,278,18/05/2020,17:50:04
5aaa7bde56c51000018cc7b5,27,female,1,2,40,Ambigous_right,no_enforcement2,0,0,-,left,14,11,500,1.45,right,right,1,2,1,0.08,4,139,278,18/05/2020,17:50:04
5aaa7bde56c51000018cc7b5,27,female,1,2,41,Clear_profit_side,no_enforcement2,0,0,-,left,9,16,500,1.45,left,left,2,1,1,0.101,4,139,278,18/05/2020,17:50:04
5aaa7bde56c51000018cc7b5,27,female,1,2,42,Clear_not_profit_side,no_enforcement2,0,0,-,left,16,9,500,1.45,right,right,1,2,1,0.224,4,139,278,18/05/2020,17:50:04
5aaa7bde56c51000018cc7b5,27,female,1,2,43,Clear_profit_side,no_enforcement2,0,0,-,left,9,16,500,1.45,left,left,2,1,1,0.082,4,139,278,18/05/2020,17:50:04
5aaa7bde56c51000018cc7b5,27,female,1,2,44,Ambigous_right,no_enforcement2,0,0,-,left,14,11,500,1.45,right,right,1,2,1,0.083,4,139,278,18/05/2020,17:50:04
5aaa7bde56c51000018cc7b5,27,female,1,2,45,Clear_not_profit_side,no_enforcement2,0,0,-,left,16,9,500,1.45,right,right,1,2,1,0.083,4,139,278,18/05/2020,17:50:04
5aaa7bde56c51000018cc7b5,27,female,1,2,46,Ambigous_left,no_enforcement2,0,0,-,left,11,14,500,1.45,left,left,2,1,1,0.3,4,139,278,18/05/2020,17:50:04
5aaa7bde56c51000018cc7b5,27,female,1,2,47,Ambigous_right,no_enforcement2,0,0,-,left,14,11,500,1.45,right,right,1,2,1,0.116,4,139,278,18/05/2020,17:50:04
5aaa7bde56c51000018cc7b5,27,female,1,2,48,Ambigous_left,no_enforcement2,0,0,-,left,11,14,500,1.45,left,left,2,1,1,0.129,4,139,278,18/05/2020,17:50:04
5aaa7bde56c51000018cc7b5,27,female,1,2,49,Ambigous_right,no_enforcement2,0,0,-,left,14,11,500,1.45,right,right,1,2,1,0.138,4,139,278,18/05/2020,17:50:04
5aaa7bde56c51000018cc7b5,27,female,1,2,50,Clear_not_profit_side,no_enforcement2,0,0,-,left,16,9,500,1.45,right,right,1,2,1,0.133,4,139,278,18/05/2020,17:50:04
5aaa7bde56c51000018cc7b5,27,female,1,2,51,Ambigous_left,no_enforcement2,0,0,-,left,11,14,500,1.45,left,left,2,1,1,0.095,4,139,278,18/05/2020,17:50:04
5aaa7bde56c51000018cc7b5,27,female,1,2,52,Ambigous_left,no_enforcement2,0,0,-,left,11,14,500,1.45,left,left,2,1,1,0.112,4,139,278,18/05/2020,17:50:04
5aaa7bde56c51000018cc7b5,27,female,1,2,53,Ambigous_left,no_enforcement2,0,0,-,left,11,14,500,1.45,left,left,2,1,1,0.124,4,139,278,18/05/2020,17:50:04
5aaa7bde56c51000018cc7b5,27,female,1,2,54,Ambigous_left,no_enforcement2,0,0,-,left,11,14,500,1.45,left,left,2,1,1,0.302,4,139,278,18/05/2020,17:50:04
5aaa7bde56c51000018cc7b5,27,female,1,2,55,Ambigous_right,no_enforcement2,0,0,-,left,14,11,500,1.45,right,right,1,2,1,0.096,4,139,278,18/05/2020,17:50:04
5aaa7bde56c51000018cc7b5,27,female,1,2,56,Clear_not_profit_side,no_enforcement2,0,0,-,left,16,9,500,1.45,right,right,1,2,1,0.084,4,139,278,18/05/2020,17:50:04
5aaa7bde56c51000018cc7b5,27,female,1,2,57,Ambigous_right,no_enforcement2,0,0,-,left,14,11,500,1.45,right,right,1,2,1,0.164,4,139,278,18/05/2020,17:50:04
5aaa7bde56c51000018cc7b5,27,female,1,2,58,Ambigous_right,no_enforcement2,0,0,-,left,14,11,500,1.45,right,right,1,2,1,0.122,4,139,278,18/05/2020,17:50:04
5aaa7bde56c51000018cc7b5,27,female,1,2,59,Ambigous_right,no_enforcement2,0,0,-,left,14,11,500,1.45,right,right,1,2,1,0.089,4,139,278,18/05/2020,17:50:04
5aaa7bde56c51000018cc7b5,27,female,1,2,60,Ambigous_right,no_enforcement2,0,0,-,left,14,11,500,1.45,right,right,1,2,1,0.096,4,139,278,18/05/2020,17:50:04
5aaa7bde56c51000018cc7b5,27,female,1,2,61,Clear_not_profit_side,no_enforcement2,0,0,-,left,16,9,500,1.45,right,right,1,2,1,0.087,4,139,278,18/05/2020,17:50:04
5aaa7bde56c51000018cc7b5,27,female,1,2,62,Ambigous_right,no_enforcement2,0,0,-,left,14,11,500,1.45,right,right,1,2,1,0.217,4,139,278,18/05/2020,17:50:04
5aaa7bde56c51000018cc7b5,27,female,1,2,63,Clear_not_profit_side,no_enforcement2,0,0,-,left,16,9,500,1.45,right,right,1,2,1,0.102,4,139,278,18/05/2020,17:50:04
5aaa7bde56c51000018cc7b5,27,female,1,2,64,Ambigous_right,no_enforcement2,0,0,-,left,14,11,500,1.45,right,right,1,2,1,0.105,4,139,278,18/05/2020,17:50:04
5aaa7bde56c51000018cc7b5,27,female,1,2,65,Clear_profit_side,no_enforcement2,0,0,-,left,9,16,500,1.45,left,left,2,1,1,0.093,4,139,278,18/05/2020,17:50:04
5aaa7bde56c51000018cc7b5,27,female,1,2,66,Ambigous_left,no_enforcement2,0,0,-,left,11,14,500,1.45,left,left,2,1,1,0.104,4,139,278,18/05/2020,17:50:04
5aaa7bde56c51000018cc7b5,27,female,1,2,67,Clear_not_profit_side,no_enforcement2,0,0,-,left,16,9,500,1.45,right,right,1,2,1,0.295,4,139,278,18/05/2020,17:50:04
5aaa7bde56c51000018cc7b5,27,female,1,2,68,Clear_profit_side,no_enforcement2,0,0,-,left,9,16,500,1.45,left,left,2,1,1,0.133,4,139,278,18/05/2020,17:50:04
5aaa7bde56c51000018cc7b5,27,female,1,2,69,Ambigous_left,no_enforcement2,0,0,-,left,11,14,500,1.45,left,left,2,1,1,0.134,4,139,278,18/05/2020,17:50:04
5aaa7bde56c51000018cc7b5,27,female,1,2,70,Clear_not_profit_side,no_enforcement2,0,0,-,left,16,9,500,1.45,right,right,1,2,1,0.092,4,139,278,18/05/2020,17:50:04
5aaa7bde56c51000018cc7b5,27,female,1,2,71,Clear_not_profit_side,no_enforcement2,0,0,-,left,16,9,500,1.45,right,right,1,2,1,0.083,4,139,278,18/05/2020,17:50:04
5aaa7bde56c51000018cc7b5,27,female,1,2,72,Ambigous_right,no_enforcement2,0,0,-,left,14,11,500,1.45,right,left,2,1,0,0.103,4,139,278,18/05/2020,17:50:04
5aaa7bde56c51000018cc7b5,27,female,1,2,73,Clear_not_profit_side,no_enforcement2,0,0,-,left,16,9,500,1.45,right,right,1,2,1,0.088,4,139,278,18/05/2020,17:50:04
5aaa7bde56c51000018cc7b5,27,female,1,2,74,Clear_profit_side,no_enforcement2,0,0,-,left,9,16,500,1.45,left,left,2,1,1,0.189,4,139,278,18/05/2020,17:50:04
5aaa7bde56c51000018cc7b5,27,female,1,2,75,Ambigous_right,no_enforcement2,0,0,-,left,14,11,500,1.45,right,right,1,2,1,0.093,4,139,278,18/05/2020,17:50:04
5aaa7bde56c51000018cc7b5,27,female,1,2,76,Clear_not_profit_side,no_enforcement2,0,0,-,left,16,9,500,1.45,right,right,1,2,1,0.084,4,139,278,18/05/2020,17:50:04
5aaa7bde56c51000018cc7b5,27,female,1,2,77,Ambigous_right,no_enforcement2,0,0,-,left,14,11,500,1.45,right,right,1,2,1,0.088,4,139,278,18/05/2020,17:50:04
5aaa7bde56c51000018cc7b5,27,female,1,2,78,Ambigous_left,no_enforcement2,0,0,-,left,11,14,500,1.45,left,left,2,1,1,0.11,4,139,278,18/05/2020,17:50:04
5aaa7bde56c51000018cc7b5,27,female,1,2,79,Clear_profit_side,no_enforcement2,0,0,-,left,9,16,500,1.45,left,left,2,1,1,0.089,4,139,278,18/05/2020,17:50:04
5aaa7bde56c51000018cc7b5,27,female,1,2,80,Ambigous_right,no_enforcement2,0,0,-,left,14,11,500,1.45,right,right,1,2,1,0.105,4,139,278,18/05/2020,17:50:04
5aaa7bde56c51000018cc7b5,27,female,1,2,81,Clear_not_profit_side,no_enforcement2,0,0,-,left,16,9,500,1.45,right,right,1,2,1,0.186,4,139,278,18/05/2020,17:50:04
5aaa7bde56c51000018cc7b5,27,female,1,2,82,Clear_profit_side,no_enforcement2,0,0,-,left,9,16,500,1.45,left,left,2,1,1,0.12,4,139,278,18/05/2020,17:50:04
5aaa7bde56c51000018cc7b5,27,female,1,2,83,Clear_not_profit_side,no_enforcement2,0,0,-,left,16,9,500,1.45,right,right,1,2,1,0.084,4,139,278,18/05/2020,17:50:04
5aaa7bde56c51000018cc7b5,27,female,1,2,84,Clear_not_profit_side,no_enforcement2,0,0,-,left,16,9,500,1.45,right,right,1,2,1,0.099,4,139,278,18/05/2020,17:50:04
5aaa7bde56c51000018cc7b5,27,female,1,2,85,Clear_not_profit_side,no_enforcement2,0,0,-,left,16,9,500,1.45,right,right,1,2,1,0.17,4,139,278,18/05/2020,17:50:04
5aaa7bde56c51000018cc7b5,27,female,1,2,86,Ambigous_left,no_enforcement2,0,0,-,left,11,14,500,1.45,left,left,2,1,1,0.12,4,139,278,18/05/2020,17:50:04
5aaa7bde56c51000018cc7b5,27,female,1,2,87,Clear_profit_side,no_enforcement2,0,0,-,left,9,16,500,1.45,left,left,2,1,1,0.104,4,139,278,18/05/2020,17:50:04
5aaa7bde56c51000018cc7b5,27,female,1,2,88,Clear_not_profit_side,no_enforcement2,0,0,-,left,16,9,500,1.45,right,right,1,2,1,0.09,4,139,278,18/05/2020,17:50:04
5aaa7bde56c51000018cc7b5,27,female,1,2,89,Ambigous_left,no_enforcement2,0,0,-,left,11,14,500,1.45,left,left,2,1,1,0.157,4,139,278,18/05/2020,17:50:04
5aaa7bde56c51000018cc7b5,27,female,1,2,90,Clear_not_profit_side,no_enforcement2,0,0,-,left,16,9,500,1.45,right,right,1,2,1,0.083,4,139,278,18/05/2020,17:50:04
5aaa7bde56c51000018cc7b5,27,female,1,2,91,Ambigous_right,no_enforcement2,0,0,-,left,14,11,500,1.45,right,right,1,2,1,0.095,4,139,278,18/05/2020,17:50:04
5aaa7bde56c51000018cc7b5,27,female,1,2,92,Ambigous_right,no_enforcement2,0,0,-,left,14,11,500,1.45,right,right,1,2,1,0.081,4,139,278,18/05/2020,17:50:04
5aaa7bde56c51000018cc7b5,27,female,1,2,93,Ambigous_left,no_enforcement2,0,0,-,left,11,14,500,1.45,left,left,2,1,1,0.213,4,139,278,18/05/2020,17:50:04
5aaa7bde56c51000018cc7b5,27,female,1,2,94,Clear_not_profit_side,no_enforcement2,0,0,-,left,16,9,500,1.45,right,right,1,2,1,0.107,4,139,278,18/05/2020,17:50:04
5aaa7bde56c51000018cc7b5,27,female,1,2,95,Clear_profit_side,no_enforcement2,0,0,-,left,9,16,500,1.45,left,left,2,1,1,0.115,4,139,278,18/05/2020,17:50:04
5aaa7bde56c51000018cc7b5,27,female,1,2,96,Clear_not_profit_side,no_enforcement2,0,0,-,left,16,9,500,1.45,right,right,1,2,1,0.083,4,139,278,18/05/2020,17:50:04
5aaa7bde56c51000018cc7b5,27,female,1,2,97,Clear_not_profit_side,no_enforcement2,0,0,-,left,16,9,500,1.45,right,right,1,2,1,0.083,4,139,278,18/05/2020,17:50:04
5aaa7bde56c51000018cc7b5,27,female,1,2,98,Ambigous_right,no_enforcement2,0,0,-,left,14,11,500,1.45,right,right,1,2,1,0.087,4,139,278,18/05/2020,17:50:04
5aaa7bde56c51000018cc7b5,27,female,1,2,99,Ambigous_left,no_enforcement2,0,0,-,left,11,14,500,1.45,left,left,2,1,1,0.144,4,139,278,18/05/2020,17:50:04
5aaa7bde56c51000018cc7b5,27,female,1,2,100,Ambigous_left,no_enforcement2,0,0,-,left,11,14,500,1.45,left,left,2,1,1,0.115,4,139,278,18/05/2020,17:50:04
5b2973a08c745200013b84ae,52,female,1,1,1,Ambigous_right,no_enforcement2,0,0,-,left,14,11,500,1.45,right,right,1,2,1,0.295,4,139,281,18/05/2020,18:57:39
5b2973a08c745200013b84ae,52,female,1,1,2,Ambigous_left,no_enforcement2,0,0,-,left,11,14,500,1.45,left,left,2,1,1,0.233,4,139,281,18/05/2020,18:57:39
5b2973a08c745200013b84ae,52,female,1,1,3,Ambigous_right,no_enforcement2,0,0,-,left,14,11,500,1.45,right,right,1,2,1,0.223,4,139,281,18/05/2020,18:57:39
5b2973a08c745200013b84ae,52,female,1,1,4,Ambigous_left,no_enforcement2,0,0,-,left,11,14,500,1.45,left,left,2,1,1,0.225,4,139,281,18/05/2020,18:57:39
5b2973a08c745200013b84ae,52,female,1,1,5,Ambigous_left,no_enforcement2,0,0,-,left,11,14,500,1.45,left,left,2,1,1,0.215,4,139,281,18/05/2020,18:57:39
5b2973a08c745200013b84ae,52,female,1,1,6,Clear_profit_side,no_enforcement2,0,0,-,left,9,16,500,1.45,left,left,2,1,1,0.237,4,139,281,18/05/2020,18:57:39
5b2973a08c745200013b84ae,52,female,1,1,7,Ambigous_right,no_enforcement2,0,0,-,left,14,11,500,1.45,right,right,1,2,1,0.197,4,139,281,18/05/2020,18:57:39
5b2973a08c745200013b84ae,52,female,1,1,8,Clear_not_profit_side,no_enforcement2,0,0,-,left,16,9,500,1.45,right,right,1,2,1,0.202,4,139,281,18/05/2020,18:57:39
5b2973a08c745200013b84ae,52,female,1,1,9,Ambigous_right,no_enforcement2,0,0,-,left,14,11,500,1.45,right,right,1,2,1,0.212,4,139,281,18/05/2020,18:57:39
5b2973a08c745200013b84ae,52,female,1,1,10,Clear_not_profit_side,no_enforcement2,0,0,-,left,16,9,500,1.45,right,right,1,2,1,0.188,4,139,281,18/05/2020,18:57:39
5b2973a08c745200013b84ae,52,female,1,1,11,Ambigous_right,no_enforcement2,0,0,-,left,14,11,500,1.45,right,right,1,2,1,0.295,4,139,281,18/05/2020,18:57:39
5b2973a08c745200013b84ae,52,female,1,1,12,Clear_profit_side,no_enforcement2,0,0,-,left,9,16,500,1.45,left,left,2,1,1,0.231,4,139,281,18/05/2020,18:57:39
5b2973a08c745200013b84ae,52,female,1,1,13,Ambigous_left,no_enforcement2,0,0,-,left,11,14,500,1.45,left,left,2,1,1,0.195,4,139,281,18/05/2020,18:57:39
5b2973a08c745200013b84ae,52,female,1,1,14,Ambigous_right,no_enforcement2,0,0,-,left,14,11,500,1.45,right,right,1,2,1,0.192,4,139,281,18/05/2020,18:57:39
5b2973a08c745200013b84ae,52,female,1,1,15,Clear_profit_side,no_enforcement2,0,0,-,left,9,16,500,1.45,left,left,2,1,1,0.192,4,139,281,18/05/2020,18:57:39
5b2973a08c745200013b84ae,52,female,1,1,16,Ambigous_right,no_enforcement2,0,0,-,left,14,11,500,1.45,right,right,1,2,1,0.211,4,139,281,18/05/2020,18:57:39
5b2973a08c745200013b84ae,52,female,1,1,17,Ambigous_right,no_enforcement2,0,0,-,left,14,11,500,1.45,right,right,1,2,1,0.212,4,139,281,18/05/2020,18:57:39
5b2973a08c745200013b84ae,52,female,1,1,18,Clear_profit_side,no_enforcement2,0,0,-,left,9,16,500,1.45,left,left,2,1,1,0.188,4,139,281,18/05/2020,18:57:39
5b2973a08c745200013b84ae,52,female,1,1,19,Ambigous_right,no_enforcement2,0,0,-,left,14,11,500,1.45,right,right,1,2,1,0.203,4,139,281,18/05/2020,18:57:39
5b2973a08c745200013b84ae,52,female,1,1,20,Clear_not_profit_side,no_enforcement2,0,0,-,left,16,9,500,1.45,right,right,1,2,1,0.2,4,139,281,18/05/2020,18:57:39
5b2973a08c745200013b84ae,52,female,1,1,21,Clear_not_profit_side,no_enforcement2,0,0,-,left,16,9,500,1.45,right,right,1,2,1,0.215,4,139,281,18/05/2020,18:57:39
5b2973a08c745200013b84ae,52,female,1,1,22,Clear_not_profit_side,no_enforcement2,0,0,-,left,16,9,500,1.45,right,right,1,2,1,0.182,4,139,281,18/05/2020,18:57:39
5b2973a08c745200013b84ae,52,female,1,1,23,Ambigous_right,no_enforcement2,0,0,-,left,14,11,500,1.45,right,right,1,2,1,0.215,4,139,281,18/05/2020,18:57:39
5b2973a08c745200013b84ae,52,female,1,1,24,Ambigous_right,no_enforcement2,0,0,-,left,14,11,500,1.45,right,right,1,2,1,0.19,4,139,281,18/05/2020,18:57:39
5b2973a08c745200013b84ae,52,female,1,1,25,Clear_not_profit_side,no_enforcement2,0,0,-,left,16,9,500,1.45,right,right,1,2,1,0.206,4,139,281,18/05/2020,18:57:39
5b2973a08c745200013b84ae,52,female,1,1,26,Ambigous_left,no_enforcement2,0,0,-,left,11,14,500,1.45,left,left,2,1,1,0.269,4,139,281,18/05/2020,18:57:39
5b2973a08c745200013b84ae,52,female,1,1,27,Ambigous_left,no_enforcement2,0,0,-,left,11,14,500,1.45,left,left,2,1,1,0.245,4,139,281,18/05/2020,18:57:39
5b2973a08c745200013b84ae,52,female,1,1,28,Clear_not_profit_side,no_enforcement2,0,0,-,left,16,9,500,1.45,right,right,1,2,1,0.194,4,139,281,18/05/2020,18:57:39
5b2973a08c745200013b84ae,52,female,1,1,29,Ambigous_left,no_enforcement2,0,0,-,left,11,14,500,1.45,left,left,2,1,1,0.191,4,139,281,18/05/2020,18:57:39
5b2973a08c745200013b84ae,52,female,1,1,30,Ambigous_left,no_enforcement2,0,0,-,left,11,14,500,1.45,left,left,2,1,1,0.193,4,139,281,18/05/2020,18:57:39
5b2973a08c745200013b84ae,52,female,1,1,31,Ambigous_left,no_enforcement2,0,0,-,left,11,14,500,1.45,left,left,2,1,1,0.207,4,139,281,18/05/2020,18:57:39
5b2973a08c745200013b84ae,52,female,1,1,32,Ambigous_left,no_enforcement2,0,0,-,left,11,14,500,1.45,left,left,2,1,1,0.188,4,139,281,18/05/2020,18:57:39
5b2973a08c745200013b84ae,52,female,1,1,33,Clear_not_profit_side,no_enforcement2,0,0,-,left,16,9,500,1.45,right,right,1,2,1,0.167,4,139,281,18/05/2020,18:57:39
5b2973a08c745200013b84ae,52,female,1,1,34,Ambigous_right,no_enforcement2,0,0,-,left,14,11,500,1.45,right,right,1,2,1,0.182,4,139,281,18/05/2020,18:57:39
5b2973a08c745200013b84ae,52,female,1,1,35,Ambigous_left,no_enforcement2,0,0,-,left,11,14,500,1.45,left,left,2,1,1,0.273,4,139,281,18/05/2020,18:57:39
5b2973a08c745200013b84ae,52,female,1,1,36,Clear_not_profit_side,no_enforcement2,0,0,-,left,16,9,500,1.45,right,right,1,2,1,0.179,4,139,281,18/05/2020,18:57:39
5b2973a08c745200013b84ae,52,female,1,1,37,Ambigous_right,no_enforcement2,0,0,-,left,14,11,500,1.45,right,right,1,2,1,0.204,4,139,281,18/05/2020,18:57:39
5b2973a08c745200013b84ae,52,female,1,1,38,Clear_profit_side,no_enforcement2,0,0,-,left,9,16,500,1.45,left,left,2,1,1,0.18,4,139,281,18/05/2020,18:57:39
5b2973a08c745200013b84ae,52,female,1,1,39,Ambigous_right,no_enforcement2,0,0,-,left,14,11,500,1.45,right,right,1,2,1,0.177,4,139,281,18/05/2020,18:57:39
5b2973a08c745200013b84ae,52,female,1,1,40,Clear_not_profit_side,no_enforcement2,0,0,-,left,16,9,500,1.45,right,right,1,2,1,0.186,4,139,281,18/05/2020,18:57:39
5b2973a08c745200013b84ae,52,female,1,1,41,Clear_profit_side,no_enforcement2,0,0,-,left,9,16,500,1.45,left,left,2,1,1,0.216,4,139,281,18/05/2020,18:57:39
5b2973a08c745200013b84ae,52,female,1,1,42,Clear_not_profit_side,no_enforcement2,0,0,-,left,16,9,500,1.45,right,right,1,2,1,0.182,4,139,281,18/05/2020,18:57:39
5b2973a08c745200013b84ae,52,female,1,1,43,Ambigous_right,no_enforcement2,0,0,-,left,14,11,500,1.45,right,right,1,2,1,0.189,4,139,281,18/05/2020,18:57:39
5b2973a08c745200013b84ae,52,female,1,1,44,Clear_not_profit_side,no_enforcement2,0,0,-,left,16,9,500,1.45,right,right,1,2,1,0.179,4,139,281,18/05/2020,18:57:39
5b2973a08c745200013b84ae,52,female,1,1,45,Ambigous_left,no_enforcement2,0,0,-,left,11,14,500,1.45,left,left,2,1,1,0.183,4,139,281,18/05/2020,18:57:39
5b2973a08c745200013b84ae,52,female,1,1,46,Clear_not_profit_side,no_enforcement2,0,0,-,left,16,9,500,1.45,right,right,1,2,1,0.15,4,139,281,18/05/2020,18:57:39
5b2973a08c745200013b84ae,52,female,1,1,47,Ambigous_left,no_enforcement2,0,0,-,left,11,14,500,1.45,left,left,2,1,1,0.286,4,139,281,18/05/2020,18:57:39
5b2973a08c745200013b84ae,52,female,1,1,48,Clear_not_profit_side,no_enforcement2,0,0,-,left,16,9,500,1.45,right,right,1,2,1,0.171,4,139,281,18/05/2020,18:57:39
5b2973a08c745200013b84ae,52,female,1,1,49,Ambigous_left,no_enforcement2,0,0,-,left,11,14,500,1.45,left,left,2,1,1,0.214,4,139,281,18/05/2020,18:57:39
5b2973a08c745200013b84ae,52,female,1,1,50,Ambigous_left,no_enforcement2,0,0,-,left,11,14,500,1.45,left,right,1,2,0,0.198,4,139,281,18/05/2020,18:57:39
5b2973a08c745200013b84ae,52,female,1,1,51,Ambigous_left,no_enforcement2,0,0,-,left,11,14,500,1.45,left,left,2,1,1,0.184,4,139,281,18/05/2020,18:57:39
5b2973a08c745200013b84ae,52,female,1,1,52,Clear_not_profit_side,no_enforcement2,0,0,-,left,16,9,500,1.45,right,right,1,2,1,0.171,4,139,281,18/05/2020,18:57:39
5b2973a08c745200013b84ae,52,female,1,1,53,Ambigous_right,no_enforcement2,0,0,-,left,14,11,500,1.45,right,left,2,1,0,0.193,4,139,281,18/05/2020,18:57:39
5b2973a08c745200013b84ae,52,female,1,1,54,Clear_not_profit_side,no_enforcement2,0,0,-,left,16,9,500,1.45,right,right,1,2,1,0.184,4,139,281,18/05/2020,18:57:39
5b2973a08c745200013b84ae,52,female,1,1,55,Clear_not_profit_side,no_enforcement2,0,0,-,left,16,9,500,1.45,right,right,1,2,1,0.134,4,139,281,18/05/2020,18:57:39
5b2973a08c745200013b84ae,52,female,1,1,56,Clear_not_profit_side,no_enforcement2,0,0,-,left,16,9,500,1.45,right,right,1,2,1,0.21,4,139,281,18/05/2020,18:57:39
5b2973a08c745200013b84ae,52,female,1,1,57,Ambigous_left,no_enforcement2,0,0,-,left,11,14,500,1.45,left,right,1,2,0,0.493,4,139,281,18/05/2020,18:57:39
5b2973a08c745200013b84ae,52,female,1,1,58,Ambigous_left,no_enforcement2,0,0,-,left,11,14,500,1.45,left,left,2,1,1,0.19,4,139,281,18/05/2020,18:57:39
5b2973a08c745200013b84ae,52,female,1,1,59,Ambigous_right,no_enforcement2,0,0,-,left,14,11,500,1.45,right,right,1,2,1,0.159,4,139,281,18/05/2020,18:57:39
5b2973a08c745200013b84ae,52,female,1,1,60,Clear_profit_side,no_enforcement2,0,0,-,left,9,16,500,1.45,left,left,2,1,1,0.191,4,139,281,18/05/2020,18:57:39
5b2973a08c745200013b84ae,52,female,1,1,61,Clear_not_profit_side,no_enforcement2,0,0,-,left,16,9,500,1.45,right,right,1,2,1,0.161,4,139,281,18/05/2020,18:57:39
5b2973a08c745200013b84ae,52,female,1,1,62,Clear_profit_side,no_enforcement2,0,0,-,left,9,16,500,1.45,left,left,2,1,1,0.226,4,139,281,18/05/2020,18:57:39
5b2973a08c745200013b84ae,52,female,1,1,63,Ambigous_left,no_enforcement2,0,0,-,left,11,14,500,1.45,left,left,2,1,1,0.206,4,139,281,18/05/2020,18:57:39
5b2973a08c745200013b84ae,52,female,1,1,64,Ambigous_right,no_enforcement2,0,0,-,left,14,11,500,1.45,right,right,1,2,1,0.068,4,139,281,18/05/2020,18:57:39
5b2973a08c745200013b84ae,52,female,1,1,65,Ambigous_left,no_enforcement2,0,0,-,left,11,14,500,1.45,left,left,2,1,1,0.207,4,139,281,18/05/2020,18:57:39
5b2973a08c745200013b84ae,52,female,1,1,66,Clear_not_profit_side,no_enforcement2,0,0,-,left,16,9,500,1.45,right,right,1,2,1,0.076,4,139,281,18/05/2020,18:57:39
5b2973a08c745200013b84ae,52,female,1,1,67,Ambigous_right,no_enforcement2,0,0,-,left,14,11,500,1.45,right,right,1,2,1,0.157,4,139,281,18/05/2020,18:57:39
5b2973a08c745200013b84ae,52,female,1,1,68,Clear_profit_side,no_enforcement2,0,0,-,left,9,16,500,1.45,left,left,2,1,1,0.181,4,139,281,18/05/2020,18:57:39
5b2973a08c745200013b84ae,52,female,1,1,69,Clear_not_profit_side,no_enforcement2,0,0,-,left,16,9,500,1.45,right,right,1,2,1,0.159,4,139,281,18/05/2020,18:57:39
5b2973a08c745200013b84ae,52,female,1,1,70,Clear_profit_side,no_enforcement2,0,0,-,left,9,16,500,1.45,left,left,2,1,1,0.25,4,139,281,18/05/2020,18:57:39
5b2973a08c745200013b84ae,52,female,1,1,71,Ambigous_left,no_enforcement2,0,0,-,left,11,14,500,1.45,left,right,1,2,0,0.227,4,139,281,18/05/2020,18:57:39
5b2973a08c745200013b84ae,52,female,1,1,72,Clear_profit_side,no_enforcement2,0,0,-,left,9,16,500,1.45,left,left,2,1,1,0.16,4,139,281,18/05/2020,18:57:39
5b2973a08c745200013b84ae,52,female,1,1,73,Ambigous_right,no_enforcement2,0,0,-,left,14,11,500,1.45,right,right,1,2,1,0.17,4,139,281,18/05/2020,18:57:39
5b2973a08c745200013b84ae,52,female,1,1,74,Ambigous_left,no_enforcement2,0,0,-,left,11,14,500,1.45,left,left,2,1,1,0.229,4,139,281,18/05/2020,18:57:39
5b2973a08c745200013b84ae,52,female,1,1,75,Clear_profit_side,no_enforcement2,0,0,-,left,9,16,500,1.45,left,left,2,1,1,0.184,4,139,281,18/05/2020,18:57:39
5b2973a08c745200013b84ae,52,female,1,1,76,Ambigous_right,no_enforcement2,0,0,-,left,14,11,500,1.45,right,right,1,2,1,0.26,4,139,281,18/05/2020,18:57:39
5b2973a08c745200013b84ae,52,female,1,1,77,Clear_not_profit_side,no_enforcement2,0,0,-,left,16,9,500,1.45,right,right,1,2,1,0.165,4,139,281,18/05/2020,18:57:39
5b2973a08c745200013b84ae,52,female,1,1,78,Clear_not_profit_side,no_enforcement2,0,0,-,left,16,9,500,1.45,right,right,1,2,1,0.147,4,139,281,18/05/2020,18:57:39
5b2973a08c745200013b84ae,52,female,1,1,79,Clear_not_profit_side,no_enforcement2,0,0,-,left,16,9,500,1.45,right,right,1,2,1,0.164,4,139,281,18/05/2020,18:57:39
5b2973a08c745200013b84ae,52,female,1,1,80,Clear_not_profit_side,no_enforcement2,0,0,-,left,16,9,500,1.45,right,right,1,2,1,0.144,4,139,281,18/05/2020,18:57:39
5b2973a08c745200013b84ae,52,female,1,1,81,Ambigous_right,no_enforcement2,0,0,-,left,14,11,500,1.45,right,right,1,2,1,0.169,4,139,281,18/05/2020,18:57:39
5b2973a08c745200013b84ae,52,female,1,1,82,Clear_profit_side,no_enforcement2,0,0,-,left,9,16,500,1.45,left,left,2,1,1,0.205,4,139,281,18/05/2020,18:57:39
5b2973a08c745200013b84ae,52,female,1,1,83,Ambigous_left,no_enforcement2,0,0,-,left,11,14,500,1.45,left,left,2,1,1,0.178,4,139,281,18/05/2020,18:57:39
5b2973a08c745200013b84ae,52,female,1,1,84,Clear_not_profit_side,no_enforcement2,0,0,-,left,16,9,500,1.45,right,right,1,2,1,0.173,4,139,281,18/05/2020,18:57:39
5b2973a08c745200013b84ae,52,female,1,1,85,Clear_not_profit_side,no_enforcement2,0,0,-,left,16,9,500,1.45,right,right,1,2,1,0.148,4,139,281,18/05/2020,18:57:39
5b2973a08c745200013b84ae,52,female,1,1,86,Clear_profit_side,no_enforcement2,0,0,-,left,9,16,500,1.45,left,left,2,1,1,0.16,4,139,281,18/05/2020,18:57:39
5b2973a08c745200013b84ae,52,female,1,1,87,Ambigous_right,no_enforcement2,0,0,-,left,14,11,500,1.45,right,right,1,2,1,0.186,4,139,281,18/05/2020,18:57:39
5b2973a08c745200013b84ae,52,female,1,1,88,Clear_profit_side,no_enforcement2,0,0,-,left,9,16,500,1.45,left,left,2,1,1,0.163,4,139,281,18/05/2020,18:57:39
5b2973a08c745200013b84ae,52,female,1,1,89,Ambigous_right,no_enforcement2,0,0,-,left,14,11,500,1.45,right,right,1,2,1,0.147,4,139,281,18/05/2020,18:57:39
5b2973a08c745200013b84ae,52,female,1,1,90,Ambigous_right,no_enforcement2,0,0,-,left,14,11,500,1.45,right,right,1,2,1,0.281,4,139,281,18/05/2020,18:57:39
5b2973a08c745200013b84ae,52,female,1,1,91,Clear_not_profit_side,no_enforcement2,0,0,-,left,16,9,500,1.45,right,right,1,2,1,0.146,4,139,281,18/05/2020,18:57:39
5b2973a08c745200013b84ae,52,female,1,1,92,Clear_profit_side,no_enforcement2,0,0,-,left,9,16,500,1.45,left,left,2,1,1,0.172,4,139,281,18/05/2020,18:57:39
5b2973a08c745200013b84ae,52,female,1,1,93,Clear_not_profit_side,no_enforcement2,0,0,-,left,16,9,500,1.45,right,right,1,2,1,0.132,4,139,281,18/05/2020,18:57:39
5b2973a08c745200013b84ae,52,female,1,1,94,Ambigous_left,no_enforcement2,0,0,-,left,11,14,500,1.45,left,left,2,1,1,0.164,4,139,281,18/05/2020,18:57:39
5b2973a08c745200013b84ae,52,female,1,1,95,Clear_not_profit_side,no_enforcement2,0,0,-,left,16,9,500,1.45,right,right,1,2,1,0.127,4,139,281,18/05/2020,18:57:39
5b2973a08c745200013b84ae,52,female,1,1,96,Clear_not_profit_side,no_enforcement2,0,0,-,left,16,9,500,1.45,right,right,1,2,1,0.22,4,139,281,18/05/2020,18:57:39
5b2973a08c745200013b84ae,52,female,1,1,97,Clear_not_profit_side,no_enforcement2,0,0,-,left,16,9,500,1.45,right,right,1,2,1,0.124,4,139,281,18/05/2020,18:57:39
5b2973a08c745200013b84ae,52,female,1,1,98,Ambigous_left,no_enforcement2,0,0,-,left,11,14,500,1.45,left,left,2,1,1,0.228,4,139,281,18/05/2020,18:57:39
5b2973a08c745200013b84ae,52,female,1,1,99,Clear_not_profit_side,no_enforcement2,0,0,-,left,16,9,500,1.45,right,right,1,2,1,0.081,4,139,281,18/05/2020,18:57:39
5b2973a08c745200013b84ae,52,female,1,1,100,Clear_not_profit_side,no_enforcement2,0,0,-,left,16,9,500,1.45,right,right,1,2,1,0.123,4,139,281,18/05/2020,18:57:39
5b2973a08c745200013b84ae,52,female,1,2,1,Ambigous_right,no_enforcement2,0,0,-,left,14,11,500,1.45,right,right,1,2,1,0.2,7,142,281,18/05/2020,18:57:39
5b2973a08c745200013b84ae,52,female,1,2,2,Clear_not_profit_side,no_enforcement2,0,0,-,left,16,9,500,1.45,right,right,1,2,1,0.165,7,142,281,18/05/2020,18:57:39
5b2973a08c745200013b84ae,52,female,1,2,3,Clear_not_profit_side,no_enforcement2,0,0,-,left,16,9,500,1.45,right,right,1,2,1,0.148,7,142,281,18/05/2020,18:57:39
5b2973a08c745200013b84ae,52,female,1,2,4,Ambigous_right,no_enforcement2,0,0,-,left,14,11,500,1.45,right,right,1,2,1,0.148,7,142,281,18/05/2020,18:57:39
5b2973a08c745200013b84ae,52,female,1,2,5,Clear_profit_side,no_enforcement2,0,0,-,left,9,16,500,1.45,left,left,2,1,1,0.192,7,142,281,18/05/2020,18:57:39
5b2973a08c745200013b84ae,52,female,1,2,6,Ambigous_left,no_enforcement2,0,0,-,left,11,14,500,1.45,left,left,2,1,1,0.189,7,142,281,18/05/2020,18:57:39
5b2973a08c745200013b84ae,52,female,1,2,7,Clear_not_profit_side,no_enforcement2,0,0,-,left,16,9,500,1.45,right,right,1,2,1,0.141,7,142,281,18/05/2020,18:57:39
5b2973a08c745200013b84ae,52,female,1,2,8,Clear_not_profit_side,no_enforcement2,0,0,-,left,16,9,500,1.45,right,right,1,2,1,0.136,7,142,281,18/05/2020,18:57:39
5b2973a08c745200013b84ae,52,female,1,2,9,Clear_not_profit_side,no_enforcement2,0,0,-,left,16,9,500,1.45,right,right,1,2,1,0.154,7,142,281,18/05/2020,18:57:39
5b2973a08c745200013b84ae,52,female,1,2,10,Ambigous_right,no_enforcement2,0,0,-,left,14,11,500,1.45,right,right,1,2,1,0.183,7,142,281,18/05/2020,18:57:39
5b2973a08c745200013b84ae,52,female,1,2,11,Clear_not_profit_side,no_enforcement2,0,0,-,left,16,9,500,1.45,right,right,1,2,1,0.135,7,142,281,18/05/2020,18:57:39
5b2973a08c745200013b84ae,52,female,1,2,12,Clear_not_profit_side,no_enforcement2,0,0,-,left,16,9,500,1.45,right,right,1,2,1,0.162,7,142,281,18/05/2020,18:57:39
5b2973a08c745200013b84ae,52,female,1,2,13,Clear_not_profit_side,no_enforcement2,0,0,-,left,16,9,500,1.45,right,right,1,2,1,0.159,7,142,281,18/05/2020,18:57:39
5b2973a08c745200013b84ae,52,female,1,2,14,Ambigous_right,no_enforcement2,0,0,-,left,14,11,500,1.45,right,right,1,2,1,0.145,7,142,281,18/05/2020,18:57:39
5b2973a08c745200013b84ae,52,female,1,2,15,Clear_not_profit_side,no_enforcement2,0,0,-,left,16,9,500,1.45,right,right,1,2,1,0.159,7,142,281,18/05/2020,18:57:39
5b2973a08c745200013b84ae,52,female,1,2,16,Clear_profit_side,no_enforcement2,0,0,-,left,9,16,500,1.45,left,left,2,1,1,0.161,7,142,281,18/05/2020,18:57:39
5b2973a08c745200013b84ae,52,female,1,2,17,Ambigous_right,no_enforcement2,0,0,-,left,14,11,500,1.45,right,left,2,1,0,0.313,7,142,281,18/05/2020,18:57:39
5b2973a08c745200013b84ae,52,female,1,2,18,Ambigous_left,no_enforcement2,0,0,-,left,11,14,500,1.45,left,left,2,1,1,0.211,7,142,281,18/05/2020,18:57:39
5b2973a08c745200013b84ae,52,female,1,2,19,Ambigous_right,no_enforcement2,0,0,-,left,14,11,500,1.45,right,right,1,2,1,0.159,7,142,281,18/05/2020,18:57:39
5b2973a08c745200013b84ae,52,female,1,2,20,Clear_profit_side,no_enforcement2,0,0,-,left,9,16,500,1.45,left,left,2,1,1,0.152,7,142,281,18/05/2020,18:57:39
5b2973a08c745200013b84ae,52,female,1,2,21,Clear_not_profit_side,no_enforcement2,0,0,-,left,16,9,500,1.45,right,right,1,2,1,0.136,7,142,281,18/05/2020,18:57:39
5b2973a08c745200013b84ae,52,female,1,2,22,Ambigous_left,no_enforcement2,0,0,-,left,11,14,500,1.45,left,left,2,1,1,0.162,7,142,281,18/05/2020,18:57:39
5b2973a08c745200013b84ae,52,female,1,2,23,Clear_not_profit_side,no_enforcement2,0,0,-,left,16,9,500,1.45,right,right,1,2,1,0.139,7,142,281,18/05/2020,18:57:39
5b2973a08c745200013b84ae,52,female,1,2,24,Ambigous_left,no_enforcement2,0,0,-,left,11,14,500,1.45,left,left,2,1,1,0.2,7,142,281,18/05/2020,18:57:39
5b2973a08c745200013b84ae,52,female,1,2,25,Clear_not_profit_side,no_enforcement2,0,0,-,left,16,9,500,1.45,right,right,1,2,1,0.11,7,142,281,18/05/2020,18:57:39
5b2973a08c745200013b84ae,52,female,1,2,26,Clear_not_profit_side,no_enforcement2,0,0,-,left,16,9,500,1.45,right,right,1,2,1,0.108,7,142,281,18/05/2020,18:57:39
5b2973a08c745200013b84ae,52,female,1,2,27,Ambigous_right,no_enforcement2,0,0,-,left,14,11,500,1.45,right,right,1,2,1,0.136,7,142,281,18/05/2020,18:57:39
5b2973a08c745200013b84ae,52,female,1,2,28,Clear_not_profit_side,no_enforcement2,0,0,-,left,16,9,500,1.45,right,right,1,2,1,0.14,7,142,281,18/05/2020,18:57:39
5b2973a08c745200013b84ae,52,female,1,2,29,Clear_not_profit_side,no_enforcement2,0,0,-,left,16,9,500,1.45,right,right,1,2,1,0.12,7,142,281,18/05/2020,18:57:39
5b2973a08c745200013b84ae,52,female,1,2,30,Clear_not_profit_side,no_enforcement2,0,0,-,left,16,9,500,1.45,right,right,1,2,1,0.121,7,142,281,18/05/2020,18:57:39
5b2973a08c745200013b84ae,52,female,1,2,31,Clear_profit_side,no_enforcement2,0,0,-,left,9,16,500,1.45,left,left,2,1,1,0.194,7,142,281,18/05/2020,18:57:39
5b2973a08c745200013b84ae,52,female,1,2,32,Ambigous_left,no_enforcement2,0,0,-,left,11,14,500,1.45,left,left,2,1,1,0.198,7,142,281,18/05/2020,18:57:39
5b2973a08c745200013b84ae,52,female,1,2,33,Ambigous_right,no_enforcement2,0,0,-,left,14,11,500,1.45,right,right,1,2,1,0.123,7,142,281,18/05/2020,18:57:39
5b2973a08c745200013b84ae,52,female,1,2,34,Clear_not_profit_side,no_enforcement2,0,0,-,left,16,9,500,1.45,right,right,1,2,1,0.152,7,142,281,18/05/2020,18:57:39
5b2973a08c745200013b84ae,52,female,1,2,35,Ambigous_right,no_enforcement2,0,0,-,left,14,11,500,1.45,right,right,1,2,1,0.18,7,142,281,18/05/2020,18:57:39
5b2973a08c745200013b84ae,52,female,1,2,36,Ambigous_right,no_enforcement2,0,0,-,left,14,11,500,1.45,right,right,1,2,1,0.14,7,142,281,18/05/2020,18:57:39
5b2973a08c745200013b84ae,52,female,1,2,37,Ambigous_left,no_enforcement2,0,0,-,left,11,14,500,1.45,left,left,2,1,1,0.193,7,142,281,18/05/2020,18:57:39
5b2973a08c745200013b84ae,52,female,1,2,38,Ambigous_right,no_enforcement2,0,0,-,left,14,11,500,1.45,right,right,1,2,1,0.084,7,142,281,18/05/2020,18:57:39
5b2973a08c745200013b84ae,52,female,1,2,39,Clear_not_profit_side,no_enforcement2,0,0,-,left,16,9,500,1.45,right,right,1,2,1,0.066,7,142,281,18/05/2020,18:57:39
5b2973a08c745200013b84ae,52,female,1,2,40,Ambigous_left,no_enforcement2,0,0,-,left,11,14,500,1.45,left,left,2,1,1,0.169,7,142,281,18/05/2020,18:57:39
5b2973a08c745200013b84ae,52,female,1,2,41,Ambigous_left,no_enforcement2,0,0,-,left,11,14,500,1.45,left,left,2,1,1,0.198,7,142,281,18/05/2020,18:57:39
5b2973a08c745200013b84ae,52,female,1,2,42,Clear_not_profit_side,no_enforcement2,0,0,-,left,16,9,500,1.45,right,right,1,2,1,0.116,7,142,281,18/05/2020,18:57:39
5b2973a08c745200013b84ae,52,female,1,2,43,Clear_not_profit_side,no_enforcement2,0,0,-,left,16,9,500,1.45,right,right,1,2,1,0.129,7,142,281,18/05/2020,18:57:39
5b2973a08c745200013b84ae,52,female,1,2,44,Clear_profit_side,no_enforcement2,0,0,-,left,9,16,500,1.45,left,left,2,1,1,0.161,7,142,281,18/05/2020,18:57:39
5b2973a08c745200013b84ae,52,female,1,2,45,Ambigous_left,no_enforcement2,0,0,-,left,11,14,500,1.45,left,left,2,1,1,0.141,7,142,281,18/05/2020,18:57:39
5b2973a08c745200013b84ae,52,female,1,2,46,Clear_not_profit_side,no_enforcement2,0,0,-,left,16,9,500,1.45,right,right,1,2,1,0.223,7,142,281,18/05/2020,18:57:39
5b2973a08c745200013b84ae,52,female,1,2,47,Ambigous_left,no_enforcement2,0,0,-,left,11,14,500,1.45,left,right,1,2,0,0.164,7,142,281,18/05/2020,18:57:39
5b2973a08c745200013b84ae,52,female,1,2,48,Ambigous_right,no_enforcement2,0,0,-,left,14,11,500,1.45,right,right,1,2,1,0.167,7,142,281,18/05/2020,18:57:39
5b2973a08c745200013b84ae,52,female,1,2,49,Ambigous_left,no_enforcement2,0,0,-,left,11,14,500,1.45,left,left,2,1,1,0.181,7,142,281,18/05/2020,18:57:39
5b2973a08c745200013b84ae,52,female,1,2,50,Ambigous_right,no_enforcement2,0,0,-,left,14,11,500,1.45,right,right,1,2,1,0.193,7,142,281,18/05/2020,18:57:39
5b2973a08c745200013b84ae,52,female,1,2,51,Ambigous_right,no_enforcement2,0,0,-,left,14,11,500,1.45,right,right,1,2,1,0.069,7,142,281,18/05/2020,18:57:39
5b2973a08c745200013b84ae,52,female,1,2,52,Clear_profit_side,no_enforcement2,0,0,-,left,9,16,500,1.45,left,left,2,1,1,0.177,7,142,281,18/05/2020,18:57:39
5b2973a08c745200013b84ae,52,female,1,2,53,Clear_not_profit_side,no_enforcement2,0,0,-,left,16,9,500,1.45,right,right,1,2,1,0.067,7,142,281,18/05/2020,18:57:39
5b2973a08c745200013b84ae,52,female,1,2,54,Ambigous_right,no_enforcement2,0,0,-,left,14,11,500,1.45,right,left,2,1,0,0.198,7,142,281,18/05/2020,18:57:39
5b2973a08c745200013b84ae,52,female,1,2,55,Clear_not_profit_side,no_enforcement2,0,0,-,left,16,9,500,1.45,right,right,1,2,1,0.108,7,142,281,18/05/2020,18:57:39
5b2973a08c745200013b84ae,52,female,1,2,56,Ambigous_left,no_enforcement2,0,0,-,left,11,14,500,1.45,left,left,2,1,1,0.176,7,142,281,18/05/2020,18:57:39
5b2973a08c745200013b84ae,52,female,1,2,57,Ambigous_left,no_enforcement2,0,0,-,left,11,14,500,1.45,left,left,2,1,1,0.199,7,142,281,18/05/2020,18:57:39
5b2973a08c745200013b84ae,52,female,1,2,58,Clear_not_profit_side,no_enforcement2,0,0,-,left,16,9,500,1.45,right,right,1,2,1,0.133,7,142,281,18/05/2020,18:57:39
5b2973a08c745200013b84ae,52,female,1,2,59,Ambigous_left,no_enforcement2,0,0,-,left,11,14,500,1.45,left,left,2,1,1,0.19,7,142,281,18/05/2020,18:57:39
5b2973a08c745200013b84ae,52,female,1,2,60,Clear_profit_side,no_enforcement2,0,0,-,left,9,16,500,1.45,left,left,2,1,1,0.166,7,142,281,18/05/2020,18:57:39
5b2973a08c745200013b84ae,52,female,1,2,61,Ambigous_left,no_enforcement2,0,0,-,left,11,14,500,1.45,left,left,2,1,1,0.183,7,142,281,18/05/2020,18:57:39
5b2973a08c745200013b84ae,52,female,1,2,62,Ambigous_left,no_enforcement2,0,0,-,left,11,14,500,1.45,left,left,2,1,1,0.129,7,142,281,18/05/2020,18:57:39
5b2973a08c745200013b84ae,52,female,1,2,63,Ambigous_left,no_enforcement2,0,0,-,left,11,14,500,1.45,left,left,2,1,1,0.133,7,142,281,18/05/2020,18:57:39
5b2973a08c745200013b84ae,52,female,1,2,64,Ambigous_right,no_enforcement2,0,0,-,left,14,11,500,1.45,right,right,1,2,1,0.179,7,142,281,18/05/2020,18:57:39
5b2973a08c745200013b84ae,52,female,1,2,65,Clear_profit_side,no_enforcement2,0,0,-,left,9,16,500,1.45,left,left,2,1,1,0.188,7,142,281,18/05/2020,18:57:39
5b2973a08c745200013b84ae,52,female,1,2,66,Clear_not_profit_side,no_enforcement2,0,0,-,left,16,9,500,1.45,right,right,1,2,1,0.108,7,142,281,18/05/2020,18:57:39
5b2973a08c745200013b84ae,52,female,1,2,67,Clear_profit_side,no_enforcement2,0,0,-,left,9,16,500,1.45,left,left,2,1,1,0.378,7,142,281,18/05/2020,18:57:39
5b2973a08c745200013b84ae,52,female,1,2,68,Ambigous_left,no_enforcement2,0,0,-,left,11,14,500,1.45,left,left,2,1,1,0.217,7,142,281,18/05/2020,18:57:39
5b2973a08c745200013b84ae,52,female,1,2,69,Ambigous_right,no_enforcement2,0,0,-,left,14,11,500,1.45,right,right,1,2,1,0.206,7,142,281,18/05/2020,18:57:39
5b2973a08c745200013b84ae,52,female,1,2,70,Clear_not_profit_side,no_enforcement2,0,0,-,left,16,9,500,1.45,right,right,1,2,1,0.052,7,142,281,18/05/2020,18:57:39
5b2973a08c745200013b84ae,52,female,1,2,71,Ambigous_left,no_enforcement2,0,0,-,left,11,14,500,1.45,left,left,2,1,1,0.198,7,142,281,18/05/2020,18:57:39
5b2973a08c745200013b84ae,52,female,1,2,72,Ambigous_left,no_enforcement2,0,0,-,left,11,14,500,1.45,left,left,2,1,1,0.142,7,142,281,18/05/2020,18:57:39
5b2973a08c745200013b84ae,52,female,1,2,73,Clear_profit_side,no_enforcement2,0,0,-,left,9,16,500,1.45,left,left,2,1,1,0.044,7,142,281,18/05/2020,18:57:39
5b2973a08c745200013b84ae,52,female,1,2,74,Ambigous_left,no_enforcement2,0,0,-,left,11,14,500,1.45,left,left,2,1,1,0.183,7,142,281,18/05/2020,18:57:39
5b2973a08c745200013b84ae,52,female,1,2,75,Clear_not_profit_side,no_enforcement2,0,0,-,left,16,9,500,1.45,right,right,1,2,1,0.164,7,142,281,18/05/2020,18:57:39
5b2973a08c745200013b84ae,52,female,1,2,76,Clear_not_profit_side,no_enforcement2,0,0,-,left,16,9,500,1.45,right,right,1,2,1,0.12,7,142,281,18/05/2020,18:57:39
5b2973a08c745200013b84ae,52,female,1,2,77,Ambigous_left,no_enforcement2,0,0,-,left,11,14,500,1.45,left,left,2,1,1,0.185,7,142,281,18/05/2020,18:57:39
5b2973a08c745200013b84ae,52,female,1,2,78,Ambigous_right,no_enforcement2,0,0,-,left,14,11,500,1.45,right,right,1,2,1,0.199,7,142,281,18/05/2020,18:57:39
5b2973a08c745200013b84ae,52,female,1,2,79,Clear_profit_side,no_enforcement2,0,0,-,left,9,16,500,1.45,left,left,2,1,1,0.148,7,142,281,18/05/2020,18:57:39
5b2973a08c745200013b84ae,52,female,1,2,80,Ambigous_right,no_enforcement2,0,0,-,left,14,11,500,1.45,right,left,2,1,0,0.143,7,142,281,18/05/2020,18:57:39
5b2973a08c745200013b84ae,52,female,1,2,81,Ambigous_right,no_enforcement2,0,0,-,left,14,11,500,1.45,right,right,1,2,1,0.202,7,142,281,18/05/2020,18:57:39
5b2973a08c745200013b84ae,52,female,1,2,82,Clear_profit_side,no_enforcement2,0,0,-,left,9,16,500,1.45,left,left,2,1,1,0.226,7,142,281,18/05/2020,18:57:39
5b2973a08c745200013b84ae,52,female,1,2,83,Clear_not_profit_side,no_enforcement2,0,0,-,left,16,9,500,1.45,right,right,1,2,1,0.143,7,142,281,18/05/2020,18:57:39
5b2973a08c745200013b84ae,52,female,1,2,84,Ambigous_left,no_enforcement2,0,0,-,left,11,14,500,1.45,left,right,1,2,0,0.201,7,142,281,18/05/2020,18:57:39
5b2973a08c745200013b84ae,52,female,1,2,85,Ambigous_left,no_enforcement2,0,0,-,left,11,14,500,1.45,left,right,1,2,0,0.143,7,142,281,18/05/2020,18:57:39
5b2973a08c745200013b84ae,52,female,1,2,86,Ambigous_left,no_enforcement2,0,0,-,left,11,14,500,1.45,left,left,2,1,1,0.162,7,142,281,18/05/2020,18:57:39
5b2973a08c745200013b84ae,52,female,1,2,87,Clear_profit_side,no_enforcement2,0,0,-,left,9,16,500,1.45,left,left,2,1,1,0.19,7,142,281,18/05/2020,18:57:39
5b2973a08c745200013b84ae,52,female,1,2,88,Clear_profit_side,no_enforcement2,0,0,-,left,9,16,500,1.45,left,left,2,1,1,0.154,7,142,281,18/05/2020,18:57:39
5b2973a08c745200013b84ae,52,female,1,2,89,Ambigous_right,no_enforcement2,0,0,-,left,14,11,500,1.45,right,right,1,2,1,0.277,7,142,281,18/05/2020,18:57:39
5b2973a08c745200013b84ae,52,female,1,2,90,Ambigous_right,no_enforcement2,0,0,-,left,14,11,500,1.45,right,right,1,2,1,0.16,7,142,281,18/05/2020,18:57:39
5b2973a08c745200013b84ae,52,female,1,2,91,Clear_not_profit_side,no_enforcement2,0,0,-,left,16,9,500,1.45,right,right,1,2,1,0.074,7,142,281,18/05/2020,18:57:39
5b2973a08c745200013b84ae,52,female,1,2,92,Clear_not_profit_side,no_enforcement2,0,0,-,left,16,9,500,1.45,right,right,1,2,1,0.042,7,142,281,18/05/2020,18:57:39
5b2973a08c745200013b84ae,52,female,1,2,93,Clear_not_profit_side,no_enforcement2,0,0,-,left,16,9,500,1.45,right,right,1,2,1,0.061,7,142,281,18/05/2020,18:57:39
5b2973a08c745200013b84ae,52,female,1,2,94,Clear_not_profit_side,no_enforcement2,0,0,-,left,16,9,500,1.45,right,right,1,2,1,0.116,7,142,281,18/05/2020,18:57:39
5b2973a08c745200013b84ae,52,female,1,2,95,Ambigous_right,no_enforcement2,0,0,-,left,14,11,500,1.45,right,left,2,1,0,0.208,7,142,281,18/05/2020,18:57:39
5b2973a08c745200013b84ae,52,female,1,2,96,Ambigous_right,no_enforcement2,0,0,-,left,14,11,500,1.45,right,right,1,2,1,0.155,7,142,281,18/05/2020,18:57:39
5b2973a08c745200013b84ae,52,female,1,2,97,Clear_not_profit_side,no_enforcement2,0,0,-,left,16,9,500,1.45,right,right,1,2,1,0.17,7,142,281,18/05/2020,18:57:39
5b2973a08c745200013b84ae,52,female,1,2,98,Ambigous_right,no_enforcement2,0,0,-,left,14,11,500,1.45,right,right,1,2,1,0.13,7,142,281,18/05/2020,18:57:39
5b2973a08c745200013b84ae,52,female,1,2,99,Clear_profit_side,no_enforcement2,0,0,-,left,9,16,500,1.45,left,left,2,1,1,0.173,7,142,281,18/05/2020,18:57:39
5b2973a08c745200013b84ae,52,female,1,2,100,Clear_profit_side,no_enforcement2,0,0,-,left,9,16,500,1.45,left,left,2,1,1,0.184,7,142,281,18/05/2020,18:57:39
5e68ff434db49c01d7dbedd2,27,male,1,1,1,Clear_not_profit_side,no_enforcement2,0,0,-,right,9,16,500,1.45,left,left,1,2,1,0.225,6,147,292,18/05/2020,18:43:20
5e68ff434db49c01d7dbedd2,27,male,1,1,2,Clear_not_profit_side,no_enforcement2,0,0,-,right,9,16,500,1.45,left,left,1,2,1,0.521,6,147,292,18/05/2020,18:43:20
5e68ff434db49c01d7dbedd2,27,male,1,1,3,Ambigous_left,no_enforcement2,0,0,-,right,11,14,500,1.45,left,left,1,2,1,0.118,6,147,292,18/05/2020,18:43:20
5e68ff434db49c01d7dbedd2,27,male,1,1,4,Clear_profit_side,no_enforcement2,0,0,-,right,16,9,500,1.45,right,right,2,1,1,0.079,6,147,292,18/05/2020,18:43:20
5e68ff434db49c01d7dbedd2,27,male,1,1,5,Clear_not_profit_side,no_enforcement2,0,0,-,right,9,16,500,1.45,left,right,2,1,0,0.161,6,147,292,18/05/2020,18:43:20
5e68ff434db49c01d7dbedd2,27,male,1,1,6,Ambigous_left,no_enforcement2,0,0,-,right,11,14,500,1.45,left,right,2,1,0,0.382,6,147,292,18/05/2020,18:43:20
5e68ff434db49c01d7dbedd2,27,male,1,1,7,Clear_profit_side,no_enforcement2,0,0,-,right,16,9,500,1.45,right,right,2,1,1,0.083,6,147,292,18/05/2020,18:43:20
5e68ff434db49c01d7dbedd2,27,male,1,1,8,Clear_not_profit_side,no_enforcement2,0,0,-,right,9,16,500,1.45,left,left,1,2,1,0.098,6,147,292,18/05/2020,18:43:20
5e68ff434db49c01d7dbedd2,27,male,1,1,9,Clear_not_profit_side,no_enforcement2,0,0,-,right,9,16,500,1.45,left,left,1,2,1,0.074,6,147,292,18/05/2020,18:43:20
5e68ff434db49c01d7dbedd2,27,male,1,1,10,Clear_profit_side,no_enforcement2,0,0,-,right,16,9,500,1.45,right,right,2,1,1,0.058,6,147,292,18/05/2020,18:43:20
5e68ff434db49c01d7dbedd2,27,male,1,1,11,Clear_not_profit_side,no_enforcement2,0,0,-,right,9,16,500,1.45,left,left,1,2,1,0.087,6,147,292,18/05/2020,18:43:20
5e68ff434db49c01d7dbedd2,27,male,1,1,12,Ambigous_left,no_enforcement2,0,0,-,right,11,14,500,1.45,left,left,1,2,1,0.082,6,147,292,18/05/2020,18:43:20
5e68ff434db49c01d7dbedd2,27,male,1,1,13,Ambigous_right,no_enforcement2,0,0,-,right,14,11,500,1.45,right,right,2,1,1,0.081,6,147,292,18/05/2020,18:43:20
5e68ff434db49c01d7dbedd2,27,male,1,1,14,Ambigous_right,no_enforcement2,0,0,-,right,14,11,500,1.45,right,right,2,1,1,0.079,6,147,292,18/05/2020,18:43:20
5e68ff434db49c01d7dbedd2,27,male,1,1,15,Ambigous_right,no_enforcement2,0,0,-,right,14,11,500,1.45,right,right,2,1,1,0.075,6,147,292,18/05/2020,18:43:20
5e68ff434db49c01d7dbedd2,27,male,1,1,16,Clear_not_profit_side,no_enforcement2,0,0,-,right,9,16,500,1.45,left,left,1,2,1,0.077,6,147,292,18/05/2020,18:43:20
5e68ff434db49c01d7dbedd2,27,male,1,1,17,Clear_not_profit_side,no_enforcement2,0,0,-,right,9,16,500,1.45,left,left,1,2,1,0.073,6,147,292,18/05/2020,18:43:20
5e68ff434db49c01d7dbedd2,27,male,1,1,18,Ambigous_right,no_enforcement2,0,0,-,right,14,11,500,1.45,right,right,2,1,1,0.086,6,147,292,18/05/2020,18:43:20
5e68ff434db49c01d7dbedd2,27,male,1,1,19,Clear_not_profit_side,no_enforcement2,0,0,-,right,9,16,500,1.45,left,left,1,2,1,0.052,6,147,292,18/05/2020,18:43:20
5e68ff434db49c01d7dbedd2,27,male,1,1,20,Ambigous_left,no_enforcement2,0,0,-,right,11,14,500,1.45,left,right,2,1,0,0.099,6,147,292,18/05/2020,18:43:20
5e68ff434db49c01d7dbedd2,27,male,1,1,21,Clear_not_profit_side,no_enforcement2,0,0,-,right,9,16,500,1.45,left,left,1,2,1,0.05,6,147,292,18/05/2020,18:43:20
5e68ff434db49c01d7dbedd2,27,male,1,1,22,Clear_profit_side,no_enforcement2,0,0,-,right,16,9,500,1.45,right,right,2,1,1,0.07,6,147,292,18/05/2020,18:43:20
5e68ff434db49c01d7dbedd2,27,male,1,1,23,Ambigous_right,no_enforcement2,0,0,-,right,14,11,500,1.45,right,right,2,1,1,0.057,6,147,292,18/05/2020,18:43:20
5e68ff434db49c01d7dbedd2,27,male,1,1,24,Ambigous_left,no_enforcement2,0,0,-,right,11,14,500,1.45,left,left,1,2,1,0.088,6,147,292,18/05/2020,18:43:20
5e68ff434db49c01d7dbedd2,27,male,1,1,25,Ambigous_right,no_enforcement2,0,0,-,right,14,11,500,1.45,right,right,2,1,1,0.038,6,147,292,18/05/2020,18:43:20
5e68ff434db49c01d7dbedd2,27,male,1,1,26,Clear_not_profit_side,no_enforcement2,0,0,-,right,9,16,500,1.45,left,left,1,2,1,0.052,6,147,292,18/05/2020,18:43:20
5e68ff434db49c01d7dbedd2,27,male,1,1,27,Ambigous_left,no_enforcement2,0,0,-,right,11,14,500,1.45,left,left,1,2,1,0.096,6,147,292,18/05/2020,18:43:20
5e68ff434db49c01d7dbedd2,27,male,1,1,28,Clear_not_profit_side,no_enforcement2,0,0,-,right,9,16,500,1.45,left,left,1,2,1,0.071,6,147,292,18/05/2020,18:43:20
5e68ff434db49c01d7dbedd2,27,male,1,1,29,Clear_not_profit_side,no_enforcement2,0,0,-,right,9,16,500,1.45,left,left,1,2,1,0.053,6,147,292,18/05/2020,18:43:20
5e68ff434db49c01d7dbedd2,27,male,1,1,30,Clear_not_profit_side,no_enforcement2,0,0,-,right,9,16,500,1.45,left,left,1,2,1,0.053,6,147,292,18/05/2020,18:43:20
5e68ff434db49c01d7dbedd2,27,male,1,1,31,Clear_not_profit_side,no_enforcement2,0,0,-,right,9,16,500,1.45,left,left,1,2,1,0.048,6,147,292,18/05/2020,18:43:20
5e68ff434db49c01d7dbedd2,27,male,1,1,32,Ambigous_right,no_enforcement2,0,0,-,right,14,11,500,1.45,right,right,2,1,1,0.062,6,147,292,18/05/2020,18:43:20
5e68ff434db49c01d7dbedd2,27,male,1,1,33,Ambigous_right,no_enforcement2,0,0,-,right,14,11,500,1.45,right,right,2,1,1,0.064,6,147,292,18/05/2020,18:43:20
5e68ff434db49c01d7dbedd2,27,male,1,1,34,Clear_profit_side,no_enforcement2,0,0,-,right,16,9,500,1.45,right,right,2,1,1,0.047,6,147,292,18/05/2020,18:43:20
5e68ff434db49c01d7dbedd2,27,male,1,1,35,Ambigous_right,no_enforcement2,0,0,-,right,14,11,500,1.45,right,right,2,1,1,0.045,6,147,292,18/05/2020,18:43:20
5e68ff434db49c01d7dbedd2,27,male,1,1,36,Ambigous_left,no_enforcement2,0,0,-,right,11,14,500,1.45,left,left,1,2,1,0.049,6,147,292,18/05/2020,18:43:20
5e68ff434db49c01d7dbedd2,27,male,1,1,37,Clear_profit_side,no_enforcement2,0,0,-,right,16,9,500,1.45,right,right,2,1,1,0.023,6,147,292,18/05/2020,18:43:20
5e68ff434db49c01d7dbedd2,27,male,1,1,38,Ambigous_left,no_enforcement2,0,0,-,right,11,14,500,1.45,left,left,1,2,1,0.037,6,147,292,18/05/2020,18:43:20
5e68ff434db49c01d7dbedd2,27,male,1,1,39,Ambigous_left,no_enforcement2,0,0,-,right,11,14,500,1.45,left,right,2,1,0,0.06,6,147,292,18/05/2020,18:43:20
5e68ff434db49c01d7dbedd2,27,male,1,1,40,Clear_profit_side,no_enforcement2,0,0,-,right,16,9,500,1.45,right,right,2,1,1,0.041,6,147,292,18/05/2020,18:43:20
5e68ff434db49c01d7dbedd2,27,male,1,1,41,Ambigous_left,no_enforcement2,0,0,-,right,11,14,500,1.45,left,left,1,2,1,0.037,6,147,292,18/05/2020,18:43:20
5e68ff434db49c01d7dbedd2,27,male,1,1,42,Clear_not_profit_side,no_enforcement2,0,0,-,right,9,16,500,1.45,left,left,1,2,1,0.071,6,147,292,18/05/2020,18:43:20
5e68ff434db49c01d7dbedd2,27,male,1,1,43,Ambigous_right,no_enforcement2,0,0,-,right,14,11,500,1.45,right,right,2,1,1,0.044,6,147,292,18/05/2020,18:43:20
5e68ff434db49c01d7dbedd2,27,male,1,1,44,Ambigous_right,no_enforcement2,0,0,-,right,14,11,500,1.45,right,right,2,1,1,0.068,6,147,292,18/05/2020,18:43:20
5e68ff434db49c01d7dbedd2,27,male,1,1,45,Ambigous_left,no_enforcement2,0,0,-,right,11,14,500,1.45,left,right,2,1,0,0.069,6,147,292,18/05/2020,18:43:20
5e68ff434db49c01d7dbedd2,27,male,1,1,46,Ambigous_left,no_enforcement2,0,0,-,right,11,14,500,1.45,left,left,1,2,1,0.048,6,147,292,18/05/2020,18:43:20
5e68ff434db49c01d7dbedd2,27,male,1,1,47,Clear_profit_side,no_enforcement2,0,0,-,right,16,9,500,1.45,right,right,2,1,1,0.039,6,147,292,18/05/2020,18:43:20
5e68ff434db49c01d7dbedd2,27,male,1,1,48,Ambigous_right,no_enforcement2,0,0,-,right,14,11,500,1.45,right,right,2,1,1,0.043,6,147,292,18/05/2020,18:43:20
5e68ff434db49c01d7dbedd2,27,male,1,1,49,Ambigous_left,no_enforcement2,0,0,-,right,11,14,500,1.45,left,left,1,2,1,0.074,6,147,292,18/05/2020,18:43:20
5e68ff434db49c01d7dbedd2,27,male,1,1,50,Clear_not_profit_side,no_enforcement2,0,0,-,right,9,16,500,1.45,left,left,1,2,1,0.036,6,147,292,18/05/2020,18:43:20
5e68ff434db49c01d7dbedd2,27,male,1,1,51,Ambigous_right,no_enforcement2,0,0,-,right,14,11,500,1.45,right,right,2,1,1,0.043,6,147,292,18/05/2020,18:43:20
5e68ff434db49c01d7dbedd2,27,male,1,1,52,Ambigous_right,no_enforcement2,0,0,-,right,14,11,500,1.45,right,right,2,1,1,0.097,6,147,292,18/05/2020,18:43:20
5e68ff434db49c01d7dbedd2,27,male,1,1,53,Ambigous_left,no_enforcement2,0,0,-,right,11,14,500,1.45,left,left,1,2,1,0.065,6,147,292,18/05/2020,18:43:20
5e68ff434db49c01d7dbedd2,27,male,1,1,54,Clear_not_profit_side,no_enforcement2,0,0,-,right,9,16,500,1.45,left,left,1,2,1,0.035,6,147,292,18/05/2020,18:43:20
5e68ff434db49c01d7dbedd2,27,male,1,1,55,Ambigous_left,no_enforcement2,0,0,-,right,11,14,500,1.45,left,left,1,2,1,0.033,6,147,292,18/05/2020,18:43:20
5e68ff434db49c01d7dbedd2,27,male,1,1,56,Ambigous_right,no_enforcement2,0,0,-,right,14,11,500,1.45,right,right,2,1,1,0.058,6,147,292,18/05/2020,18:43:20
5e68ff434db49c01d7dbedd2,27,male,1,1,57,Ambigous_left,no_enforcement2,0,0,-,right,11,14,500,1.45,left,left,1,2,1,0.084,6,147,292,18/05/2020,18:43:20
5e68ff434db49c01d7dbedd2,27,male,1,1,58,Ambigous_right,no_enforcement2,0,0,-,right,14,11,500,1.45,right,right,2,1,1,0.034,6,147,292,18/05/2020,18:43:20
5e68ff434db49c01d7dbedd2,27,male,1,1,59,Clear_profit_side,no_enforcement2,0,0,-,right,16,9,500,1.45,right,right,2,1,1,0.044,6,147,292,18/05/2020,18:43:20
5e68ff434db49c01d7dbedd2,27,male,1,1,60,Ambigous_right,no_enforcement2,0,0,-,right,14,11,500,1.45,right,right,2,1,1,0.057,6,147,292,18/05/2020,18:43:20
5e68ff434db49c01d7dbedd2,27,male,1,1,61,Clear_not_profit_side,no_enforcement2,0,0,-,right,9,16,500,1.45,left,left,1,2,1,0.035,6,147,292,18/05/2020,18:43:20
5e68ff434db49c01d7dbedd2,27,male,1,1,62,Clear_not_profit_side,no_enforcement2,0,0,-,right,9,16,500,1.45,left,left,1,2,1,0.05,6,147,292,18/05/2020,18:43:20
5e68ff434db49c01d7dbedd2,27,male,1,1,63,Clear_profit_side,no_enforcement2,0,0,-,right,16,9,500,1.45,right,right,2,1,1,0.037,6,147,292,18/05/2020,18:43:20
5e68ff434db49c01d7dbedd2,27,male,1,1,64,Ambigous_right,no_enforcement2,0,0,-,right,14,11,500,1.45,right,right,2,1,1,0.059,6,147,292,18/05/2020,18:43:20
5e68ff434db49c01d7dbedd2,27,male,1,1,65,Ambigous_left,no_enforcement2,0,0,-,right,11,14,500,1.45,left,right,2,1,0,0.062,6,147,292,18/05/2020,18:43:20
5e68ff434db49c01d7dbedd2,27,male,1,1,66,Clear_profit_side,no_enforcement2,0,0,-,right,16,9,500,1.45,right,right,2,1,1,0.035,6,147,292,18/05/2020,18:43:20
5e68ff434db49c01d7dbedd2,27,male,1,1,67,Clear_profit_side,no_enforcement2,0,0,-,right,16,9,500,1.45,right,right,2,1,1,0.047,6,147,292,18/05/2020,18:43:20
5e68ff434db49c01d7dbedd2,27,male,1,1,68,Ambigous_left,no_enforcement2,0,0,-,right,11,14,500,1.45,left,left,1,2,1,0.063,6,147,292,18/05/2020,18:43:20
5e68ff434db49c01d7dbedd2,27,male,1,1,69,Clear_not_profit_side,no_enforcement2,0,0,-,right,9,16,500,1.45,left,left,1,2,1,0.041,6,147,292,18/05/2020,18:43:20
5e68ff434db49c01d7dbedd2,27,male,1,1,70,Ambigous_right,no_enforcement2,0,0,-,right,14,11,500,1.45,right,right,2,1,1,0.046,6,147,292,18/05/2020,18:43:20
5e68ff434db49c01d7dbedd2,27,male,1,1,71,Clear_not_profit_side,no_enforcement2,0,0,-,right,9,16,500,1.45,left,left,1,2,1,0.056,6,147,292,18/05/2020,18:43:20
5e68ff434db49c01d7dbedd2,27,male,1,1,72,Ambigous_right,no_enforcement2,0,0,-,right,14,11,500,1.45,right,right,2,1,1,0.044,6,147,292,18/05/2020,18:43:20
5e68ff434db49c01d7dbedd2,27,male,1,1,73,Ambigous_left,no_enforcement2,0,0,-,right,11,14,500,1.45,left,left,1,2,1,0.055,6,147,292,18/05/2020,18:43:20
5e68ff434db49c01d7dbedd2,27,male,1,1,74,Ambigous_left,no_enforcement2,0,0,-,right,11,14,500,1.45,left,left,1,2,1,0.046,6,147,292,18/05/2020,18:43:20
5e68ff434db49c01d7dbedd2,27,male,1,1,75,Ambigous_right,no_enforcement2,0,0,-,right,14,11,500,1.45,right,right,2,1,1,0.04,6,147,292,18/05/2020,18:43:20
5e68ff434db49c01d7dbedd2,27,male,1,1,76,Ambigous_left,no_enforcement2,0,0,-,right,11,14,500,1.45,left,left,1,2,1,0.066,6,147,292,18/05/2020,18:43:20
5e68ff434db49c01d7dbedd2,27,male,1,1,77,Ambigous_right,no_enforcement2,0,0,-,right,14,11,500,1.45,right,right,2,1,1,0.04,6,147,292,18/05/2020,18:43:20
5e68ff434db49c01d7dbedd2,27,male,1,1,78,Ambigous_right,no_enforcement2,0,0,-,right,14,11,500,1.45,right,right,2,1,1,0.061,6,147,292,18/05/2020,18:43:20
5e68ff434db49c01d7dbedd2,27,male,1,1,79,Clear_not_profit_side,no_enforcement2,0,0,-,right,9,16,500,1.45,left,left,1,2,1,0.042,6,147,292,18/05/2020,18:43:20
5e68ff434db49c01d7dbedd2,27,male,1,1,80,Clear_not_profit_side,no_enforcement2,0,0,-,right,9,16,500,1.45,left,left,1,2,1,0.054,6,147,292,18/05/2020,18:43:20
5e68ff434db49c01d7dbedd2,27,male,1,1,81,Ambigous_right,no_enforcement2,0,0,-,right,14,11,500,1.45,right,right,2,1,1,0.044,6,147,292,18/05/2020,18:43:20
5e68ff434db49c01d7dbedd2,27,male,1,1,82,Clear_not_profit_side,no_enforcement2,0,0,-,right,9,16,500,1.45,left,left,1,2,1,0.04,6,147,292,18/05/2020,18:43:20
5e68ff434db49c01d7dbedd2,27,male,1,1,83,Clear_not_profit_side,no_enforcement2,0,0,-,right,9,16,500,1.45,left,left,1,2,1,0.055,6,147,292,18/05/2020,18:43:20
5e68ff434db49c01d7dbedd2,27,male,1,1,84,Clear_not_profit_side,no_enforcement2,0,0,-,right,9,16,500,1.45,left,left,1,2,1,0.05,6,147,292,18/05/2020,18:43:20
5e68ff434db49c01d7dbedd2,27,male,1,1,85,Clear_profit_side,no_enforcement2,0,0,-,right,16,9,500,1.45,right,right,2,1,1,0.063,6,147,292,18/05/2020,18:43:20
5e68ff434db49c01d7dbedd2,27,male,1,1,86,Clear_not_profit_side,no_enforcement2,0,0,-,right,9,16,500,1.45,left,left,1,2,1,0.032,6,147,292,18/05/2020,18:43:20
5e68ff434db49c01d7dbedd2,27,male,1,1,87,Clear_profit_side,no_enforcement2,0,0,-,right,16,9,500,1.45,right,right,2,1,1,0.159,6,147,292,18/05/2020,18:43:20
5e68ff434db49c01d7dbedd2,27,male,1,1,88,Clear_not_profit_side,no_enforcement2,0,0,-,right,9,16,500,1.45,left,left,1,2,1,0.053,6,147,292,18/05/2020,18:43:20
5e68ff434db49c01d7dbedd2,27,male,1,1,89,Ambigous_left,no_enforcement2,0,0,-,right,11,14,500,1.45,left,left,1,2,1,0.061,6,147,292,18/05/2020,18:43:20
5e68ff434db49c01d7dbedd2,27,male,1,1,90,Ambigous_left,no_enforcement2,0,0,-,right,11,14,500,1.45,left,left,1,2,1,0.122,6,147,292,18/05/2020,18:43:20
5e68ff434db49c01d7dbedd2,27,male,1,1,91,Clear_profit_side,no_enforcement2,0,0,-,right,16,9,500,1.45,right,right,2,1,1,0.049,6,147,292,18/05/2020,18:43:20
5e68ff434db49c01d7dbedd2,27,male,1,1,92,Clear_profit_side,no_enforcement2,0,0,-,right,16,9,500,1.45,right,right,2,1,1,0.049,6,147,292,18/05/2020,18:43:20
5e68ff434db49c01d7dbedd2,27,male,1,1,93,Clear_not_profit_side,no_enforcement2,0,0,-,right,9,16,500,1.45,left,left,1,2,1,0.044,6,147,292,18/05/2020,18:43:20
5e68ff434db49c01d7dbedd2,27,male,1,1,94,Clear_not_profit_side,no_enforcement2,0,0,-,right,9,16,500,1.45,left,left,1,2,1,0.118,6,147,292,18/05/2020,18:43:20
5e68ff434db49c01d7dbedd2,27,male,1,1,95,Clear_not_profit_side,no_enforcement2,0,0,-,right,9,16,500,1.45,left,left,1,2,1,0.133,6,147,292,18/05/2020,18:43:20
5e68ff434db49c01d7dbedd2,27,male,1,1,96,Clear_not_profit_side,no_enforcement2,0,0,-,right,9,16,500,1.45,left,left,1,2,1,0.113,6,147,292,18/05/2020,18:43:20
5e68ff434db49c01d7dbedd2,27,male,1,1,97,Ambigous_left,no_enforcement2,0,0,-,right,11,14,500,1.45,left,left,1,2,1,0.072,6,147,292,18/05/2020,18:43:20
5e68ff434db49c01d7dbedd2,27,male,1,1,98,Ambigous_right,no_enforcement2,0,0,-,right,14,11,500,1.45,right,right,2,1,1,0.059,6,147,292,18/05/2020,18:43:20
5e68ff434db49c01d7dbedd2,27,male,1,1,99,Clear_not_profit_side,no_enforcement2,0,0,-,right,9,16,500,1.45,left,left,1,2,1,0.071,6,147,292,18/05/2020,18:43:20
5e68ff434db49c01d7dbedd2,27,male,1,1,100,Ambigous_left,no_enforcement2,0,0,-,right,11,14,500,1.45,left,left,1,2,1,0.097,6,147,292,18/05/2020,18:43:20
5e68ff434db49c01d7dbedd2,27,male,1,2,1,Clear_not_profit_side,no_enforcement2,0,0,-,right,9,16,500,1.45,left,left,1,2,1,0.051,9,145,292,18/05/2020,18:43:20
5e68ff434db49c01d7dbedd2,27,male,1,2,3,Clear_not_profit_side,no_enforcement2,0,0,-,right,14,11,500,1.45,right,left,1,2,0,0.247,9,145,292,18/05/2020,18:43:20
5e68ff434db49c01d7dbedd2,27,male,1,2,4,Clear_not_profit_side,no_enforcement2,0,0,-,right,9,16,500,1.45,left,left,1,2,1,0.047,9,145,292,18/05/2020,18:43:20
5e68ff434db49c01d7dbedd2,27,male,1,2,5,Ambigous_left,no_enforcement2,0,0,-,right,11,14,500,1.45,left,left,1,2,1,0.059,9,145,292,18/05/2020,18:43:20
5e68ff434db49c01d7dbedd2,27,male,1,2,6,Clear_not_profit_side,no_enforcement2,0,0,-,right,9,16,500,1.45,left,left,1,2,1,0.039,9,145,292,18/05/2020,18:43:20
5e68ff434db49c01d7dbedd2,27,male,1,2,7,Ambigous_right,no_enforcement2,0,0,-,right,14,11,500,1.45,right,right,2,1,1,0.045,9,145,292,18/05/2020,18:43:20
5e68ff434db49c01d7dbedd2,27,male,1,2,8,Ambigous_right,no_enforcement2,0,0,-,right,14,11,500,1.45,right,right,2,1,1,0.027,9,145,292,18/05/2020,18:43:20
5e68ff434db49c01d7dbedd2,27,male,1,2,9,Clear_not_profit_side,no_enforcement2,0,0,-,right,9,16,500,1.45,left,left,1,2,1,0.051,9,145,292,18/05/2020,18:43:20
5e68ff434db49c01d7dbedd2,27,male,1,2,10,Ambigous_left,no_enforcement2,0,0,-,right,11,14,500,1.45,left,left,1,2,1,0.042,9,145,292,18/05/2020,18:43:20
5e68ff434db49c01d7dbedd2,27,male,1,2,11,Clear_not_profit_side,no_enforcement2,0,0,-,right,9,16,500,1.45,left,left,1,2,1,0.038,9,145,292,18/05/2020,18:43:20
5e68ff434db49c01d7dbedd2,27,male,1,2,12,Clear_not_profit_side,no_enforcement2,0,0,-,right,9,16,500,1.45,left,left,1,2,1,0.056,9,145,292,18/05/2020,18:43:20
5e68ff434db49c01d7dbedd2,27,male,1,2,13,Clear_not_profit_side,no_enforcement2,0,0,-,right,9,16,500,1.45,left,left,1,2,1,0.074,9,145,292,18/05/2020,18:43:20
5e68ff434db49c01d7dbedd2,27,male,1,2,14,Ambigous_left,no_enforcement2,0,0,-,right,11,14,500,1.45,left,left,1,2,1,0.069,9,145,292,18/05/2020,18:43:20
5e68ff434db49c01d7dbedd2,27,male,1,2,15,Clear_not_profit_side,no_enforcement2,0,0,-,right,9,16,500,1.45,left,left,1,2,1,0.149,9,145,292,18/05/2020,18:43:20
5e68ff434db49c01d7dbedd2,27,male,1,2,16,Ambigous_left,no_enforcement2,0,0,-,right,11,14,500,1.45,left,left,1,2,1,0.042,9,145,292,18/05/2020,18:43:20
5e68ff434db49c01d7dbedd2,27,male,1,2,17,Clear_not_profit_side,no_enforcement2,0,0,-,right,9,16,500,1.45,left,left,1,2,1,0.371,9,145,292,18/05/2020,18:43:20
5e68ff434db49c01d7dbedd2,27,male,1,2,18,Clear_not_profit_side,no_enforcement2,0,0,-,right,9,16,500,1.45,left,left,1,2,1,0.105,9,145,292,18/05/2020,18:43:20
5e68ff434db49c01d7dbedd2,27,male,1,2,19,Clear_not_profit_side,no_enforcement2,0,0,-,right,9,16,500,1.45,left,left,1,2,1,0.046,9,145,292,18/05/2020,18:43:20
5e68ff434db49c01d7dbedd2,27,male,1,2,20,Clear_not_profit_side,no_enforcement2,0,0,-,right,9,16,500,1.45,left,left,1,2,1,0.053,9,145,292,18/05/2020,18:43:20
5e68ff434db49c01d7dbedd2,27,male,1,2,21,Ambigous_left,no_enforcement2,0,0,-,right,11,14,500,1.45,left,right,2,1,0,0.097,9,145,292,18/05/2020,18:43:20
5e68ff434db49c01d7dbedd2,27,male,1,2,22,Clear_profit_side,no_enforcement2,0,0,-,right,16,9,500,1.45,right,right,2,1,1,0.04,9,145,292,18/05/2020,18:43:20
5e68ff434db49c01d7dbedd2,27,male,1,2,23,Clear_profit_side,no_enforcement2,0,0,-,right,16,9,500,1.45,right,right,2,1,1,0.05,9,145,292,18/05/2020,18:43:20
5e68ff434db49c01d7dbedd2,27,male,1,2,24,Clear_not_profit_side,no_enforcement2,0,0,-,right,9,16,500,1.45,left,left,1,2,1,0.033,9,145,292,18/05/2020,18:43:20
5e68ff434db49c01d7dbedd2,27,male,1,2,25,Ambigous_left,no_enforcement2,0,0,-,right,11,14,500,1.45,left,left,1,2,1,0.049,9,145,292,18/05/2020,18:43:20
5e68ff434db49c01d7dbedd2,27,male,1,2,26,Clear_not_profit_side,no_enforcement2,0,0,-,right,9,16,500,1.45,left,left,1,2,1,0.051,9,145,292,18/05/2020,18:43:20
5e68ff434db49c01d7dbedd2,27,male,1,2,27,Ambigous_right,no_enforcement2,0,0,-,right,14,11,500,1.45,right,right,2,1,1,0.046,9,145,292,18/05/2020,18:43:20
5e68ff434db49c01d7dbedd2,27,male,1,2,28,Clear_not_profit_side,no_enforcement2,0,0,-,right,9,16,500,1.45,left,left,1,2,1,0.03,9,145,292,18/05/2020,18:43:20
5e68ff434db49c01d7dbedd2,27,male,1,2,29,Ambigous_left,no_enforcement2,0,0,-,right,11,14,500,1.45,left,left,1,2,1,0.059,9,145,292,18/05/2020,18:43:20
5e68ff434db49c01d7dbedd2,27,male,1,2,30,Clear_not_profit_side,no_enforcement2,0,0,-,right,9,16,500,1.45,left,left,1,2,1,0.083,9,145,292,18/05/2020,18:43:20
5e68ff434db49c01d7dbedd2,27,male,1,2,31,Ambigous_left,no_enforcement2,0,0,-,right,11,14,500,1.45,left,right,2,1,0,0.12,9,145,292,18/05/2020,18:43:20
5e68ff434db49c01d7dbedd2,27,male,1,2,32,Clear_not_profit_side,no_enforcement2,0,0,-,right,9,16,500,1.45,left,left,1,2,1,0.054,9,145,292,18/05/2020,18:43:20
5e68ff434db49c01d7dbedd2,27,male,1,2,33,Clear_not_profit_side,no_enforcement2,0,0,-,right,9,16,500,1.45,left,left,1,2,1,0.05,9,145,292,18/05/2020,18:43:20
5e68ff434db49c01d7dbedd2,27,male,1,2,34,Ambigous_left,no_enforcement2,0,0,-,right,11,14,500,1.45,left,left,1,2,1,0.058,9,145,292,18/05/2020,18:43:20
5e68ff434db49c01d7dbedd2,27,male,1,2,35,Clear_profit_side,no_enforcement2,0,0,-,right,16,9,500,1.45,right,right,2,1,1,0.026,9,145,292,18/05/2020,18:43:20
5e68ff434db49c01d7dbedd2,27,male,1,2,36,Ambigous_right,no_enforcement2,0,0,-,right,14,11,500,1.45,right,right,2,1,1,0.052,9,145,292,18/05/2020,18:43:20
5e68ff434db49c01d7dbedd2,27,male,1,2,37,Ambigous_left,no_enforcement2,0,0,-,right,11,14,500,1.45,left,left,1,2,1,0.049,9,145,292,18/05/2020,18:43:20
5e68ff434db49c01d7dbedd2,27,male,1,2,38,Ambigous_right,no_enforcement2,0,0,-,right,14,11,500,1.45,right,right,2,1,1,0.067,9,145,292,18/05/2020,18:43:20
5e68ff434db49c01d7dbedd2,27,male,1,2,39,Ambigous_left,no_enforcement2,0,0,-,right,11,14,500,1.45,left,left,1,2,1,0.054,9,145,292,18/05/2020,18:43:20
5e68ff434db49c01d7dbedd2,27,male,1,2,40,Ambigous_right,no_enforcement2,0,0,-,right,14,11,500,1.45,right,right,2,1,1,0.059,9,145,292,18/05/2020,18:43:20
5e68ff434db49c01d7dbedd2,27,male,1,2,41,Clear_not_profit_side,no_enforcement2,0,0,-,right,9,16,500,1.45,left,left,1,2,1,0.078,9,145,292,18/05/2020,18:43:20
5e68ff434db49c01d7dbedd2,27,male,1,2,42,Clear_not_profit_side,no_enforcement2,0,0,-,right,9,16,500,1.45,left,left,1,2,1,0.037,9,145,292,18/05/2020,18:43:20
5e68ff434db49c01d7dbedd2,27,male,1,2,43,Ambigous_left,no_enforcement2,0,0,-,right,11,14,500,1.45,left,left,1,2,1,0.081,9,145,292,18/05/2020,18:43:20
5e68ff434db49c01d7dbedd2,27,male,1,2,44,Ambigous_right,no_enforcement2,0,0,-,right,14,11,500,1.45,right,right,2,1,1,0.057,9,145,292,18/05/2020,18:43:20
5e68ff434db49c01d7dbedd2,27,male,1,2,45,Ambigous_right,no_enforcement2,0,0,-,right,14,11,500,1.45,right,right,2,1,1,0.056,9,145,292,18/05/2020,18:43:20
5e68ff434db49c01d7dbedd2,27,male,1,2,46,Ambigous_right,no_enforcement2,0,0,-,right,14,11,500,1.45,right,right,2,1,1,0.049,9,145,292,18/05/2020,18:43:20
5e68ff434db49c01d7dbedd2,27,male,1,2,47,Ambigous_right,no_enforcement2,0,0,-,right,14,11,500,1.45,right,right,2,1,1,0.05,9,145,292,18/05/2020,18:43:20
5e68ff434db49c01d7dbedd2,27,male,1,2,48,Ambigous_left,no_enforcement2,0,0,-,right,11,14,500,1.45,left,left,1,2,1,0.054,9,145,292,18/05/2020,18:43:20
5e68ff434db49c01d7dbedd2,27,male,1,2,49,Ambigous_left,no_enforcement2,0,0,-,right,11,14,500,1.45,left,right,2,1,0,0.131,9,145,292,18/05/2020,18:43:20
5e68ff434db49c01d7dbedd2,27,male,1,2,50,Ambigous_left,no_enforcement2,0,0,-,right,11,14,500,1.45,left,left,1,2,1,0.066,9,145,292,18/05/2020,18:43:20
5e68ff434db49c01d7dbedd2,27,male,1,2,51,Clear_profit_side,no_enforcement2,0,0,-,right,16,9,500,1.45,right,right,2,1,1,0.043,9,145,292,18/05/2020,18:43:20
5e68ff434db49c01d7dbedd2,27,male,1,2,52,Ambigous_left,no_enforcement2,0,0,-,right,11,14,500,1.45,left,left,1,2,1,0.049,9,145,292,18/05/2020,18:43:20
5e68ff434db49c01d7dbedd2,27,male,1,2,53,Clear_profit_side,no_enforcement2,0,0,-,right,16,9,500,1.45,right,right,2,1,1,0.076,9,145,292,18/05/2020,18:43:20
5e68ff434db49c01d7dbedd2,27,male,1,2,54,Ambigous_left,no_enforcement2,0,0,-,right,11,14,500,1.45,left,left,1,2,1,0.052,9,145,292,18/05/2020,18:43:20
5e68ff434db49c01d7dbedd2,27,male,1,2,55,Clear_profit_side,no_enforcement2,0,0,-,right,16,9,500,1.45,right,right,2,1,1,0.04,9,145,292,18/05/2020,18:43:20
5e68ff434db49c01d7dbedd2,27,male,1,2,56,Ambigous_right,no_enforcement2,0,0,-,right,14,11,500,1.45,right,right,2,1,1,0.029,9,145,292,18/05/2020,18:43:20
5e68ff434db49c01d7dbedd2,27,male,1,2,57,Ambigous_right,no_enforcement2,0,0,-,right,14,11,500,1.45,right,right,2,1,1,0.04,9,145,292,18/05/2020,18:43:20
5e68ff434db49c01d7dbedd2,27,male,1,2,58,Clear_profit_side,no_enforcement2,0,0,-,right,16,9,500,1.45,right,right,2,1,1,0.194,9,145,292,18/05/2020,18:43:20
5e68ff434db49c01d7dbedd2,27,male,1,2,59,Clear_not_profit_side,no_enforcement2,0,0,-,right,9,16,500,1.45,left,right,2,1,0,0.076,9,145,292,18/05/2020,18:43:20
5e68ff434db49c01d7dbedd2,27,male,1,2,60,Clear_profit_side,no_enforcement2,0,0,-,right,16,9,500,1.45,right,right,2,1,1,0.041,9,145,292,18/05/2020,18:43:20
5e68ff434db49c01d7dbedd2,27,male,1,2,61,Ambigous_right,no_enforcement2,0,0,-,right,14,11,500,1.45,right,right,2,1,1,0.041,9,145,292,18/05/2020,18:43:20
5e68ff434db49c01d7dbedd2,27,male,1,2,62,Clear_profit_side,no_enforcement2,0,0,-,right,16,9,500,1.45,right,right,2,1,1,0.046,9,145,292,18/05/2020,18:43:20
5e68ff434db49c01d7dbedd2,27,male,1,2,63,Ambigous_left,no_enforcement2,0,0,-,right,11,14,500,1.45,left,right,2,1,0,0.062,9,145,292,18/05/2020,18:43:20
5e68ff434db49c01d7dbedd2,27,male,1,2,64,Clear_profit_side,no_enforcement2,0,0,-,right,16,9,500,1.45,right,right,2,1,1,0.065,9,145,292,18/05/2020,18:43:20
5e68ff434db49c01d7dbedd2,27,male,1,2,65,Ambigous_right,no_enforcement2,0,0,-,right,14,11,500,1.45,right,right,2,1,1,0.055,9,145,292,18/05/2020,18:43:20
5e68ff434db49c01d7dbedd2,27,male,1,2,66,Clear_not_profit_side,no_enforcement2,0,0,-,right,9,16,500,1.45,left,left,1,2,1,0.064,9,145,292,18/05/2020,18:43:20
5e68ff434db49c01d7dbedd2,27,male,1,2,67,Ambigous_left,no_enforcement2,0,0,-,right,11,14,500,1.45,left,right,2,1,0,0.051,9,145,292,18/05/2020,18:43:20
5e68ff434db49c01d7dbedd2,27,male,1,2,68,Ambigous_left,no_enforcement2,0,0,-,right,11,14,500,1.45,left,right,2,1,0,0.056,9,145,292,18/05/2020,18:43:20
5e68ff434db49c01d7dbedd2,27,male,1,2,69,Clear_not_profit_side,no_enforcement2,0,0,-,right,9,16,500,1.45,left,left,1,2,1,0.059,9,145,292,18/05/2020,18:43:20
5e68ff434db49c01d7dbedd2,27,male,1,2,70,Ambigous_right,no_enforcement2,0,0,-,right,14,11,500,1.45,right,right,2,1,1,0.057,9,145,292,18/05/2020,18:43:20
5e68ff434db49c01d7dbedd2,27,male,1,2,71,Clear_not_profit_side,no_enforcement2,0,0,-,right,9,16,500,1.45,left,left,1,2,1,0.053,9,145,292,18/05/2020,18:43:20
5e68ff434db49c01d7dbedd2,27,male,1,2,72,Ambigous_right,no_enforcement2,0,0,-,right,14,11,500,1.45,right,left,1,2,0,0.196,9,145,292,18/05/2020,18:43:20
5e68ff434db49c01d7dbedd2,27,male,1,2,73,Clear_profit_side,no_enforcement2,0,0,-,right,16,9,500,1.45,right,right,2,1,1,0.141,9,145,292,18/05/2020,18:43:20
5e68ff434db49c01d7dbedd2,27,male,1,2,74,Clear_profit_side,no_enforcement2,0,0,-,right,16,9,500,1.45,right,right,2,1,1,0.202,9,145,292,18/05/2020,18:43:20
5e68ff434db49c01d7dbedd2,27,male,1,2,75,Clear_not_profit_side,no_enforcement2,0,0,-,right,9,16,500,1.45,left,left,1,2,1,0.128,9,145,292,18/05/2020,18:43:20
5e68ff434db49c01d7dbedd2,27,male,1,2,76,Clear_not_profit_side,no_enforcement2,0,0,-,right,9,16,500,1.45,left,left,1,2,1,0.085,9,145,292,18/05/2020,18:43:20
5e68ff434db49c01d7dbedd2,27,male,1,2,77,Ambigous_left,no_enforcement2,0,0,-,right,11,14,500,1.45,left,left,1,2,1,0.099,9,145,292,18/05/2020,18:43:20
5e68ff434db49c01d7dbedd2,27,male,1,2,78,Ambigous_left,no_enforcement2,0,0,-,right,11,14,500,1.45,left,left,1,2,1,0.075,9,145,292,18/05/2020,18:43:20
5e68ff434db49c01d7dbedd2,27,male,1,2,79,Clear_not_profit_side,no_enforcement2,0,0,-,right,9,16,500,1.45,left,left,1,2,1,0.144,9,145,292,18/05/2020,18:43:20
5e68ff434db49c01d7dbedd2,27,male,1,2,80,Ambigous_right,no_enforcement2,0,0,-,right,14,11,500,1.45,right,right,2,1,1,0.085,9,145,292,18/05/2020,18:43:20
5e68ff434db49c01d7dbedd2,27,male,1,2,81,Ambigous_right,no_enforcement2,0,0,-,right,14,11,500,1.45,right,right,2,1,1,0.078,9,145,292,18/05/2020,18:43:20
5e68ff434db49c01d7dbedd2,27,male,1,2,82,Ambigous_left,no_enforcement2,0,0,-,right,11,14,500,1.45,left,left,1,2,1,0.065,9,145,292,18/05/2020,18:43:20
5e68ff434db49c01d7dbedd2,27,male,1,2,83,Ambigous_left,no_enforcement2,0,0,-,right,11,14,500,1.45,left,left,1,2,1,0.084,9,145,292,18/05/2020,18:43:20
5e68ff434db49c01d7dbedd2,27,male,1,2,84,Clear_not_profit_side,no_enforcement2,0,0,-,right,9,16,500,1.45,left,left,1,2,1,0.087,9,145,292,18/05/2020,18:43:20
5e68ff434db49c01d7dbedd2,27,male,1,2,85,Clear_profit_side,no_enforcement2,0,0,-,right,16,9,500,1.45,right,right,2,1,1,0.078,9,145,292,18/05/2020,18:43:20
5e68ff434db49c01d7dbedd2,27,male,1,2,86,Clear_not_profit_side,no_enforcement2,0,0,-,right,9,16,500,1.45,left,left,1,2,1,0.069,9,145,292,18/05/2020,18:43:20
5e68ff434db49c01d7dbedd2,27,male,1,2,87,Clear_not_profit_side,no_enforcement2,0,0,-,right,9,16,500,1.45,left,left,1,2,1,0.065,9,145,292,18/05/2020,18:43:20
5e68ff434db49c01d7dbedd2,27,male,1,2,88,Ambigous_right,no_enforcement2,0,0,-,right,14,11,500,1.45,right,right,2,1,1,0.083,9,145,292,18/05/2020,18:43:20
5e68ff434db49c01d7dbedd2,27,male,1,2,89,Ambigous_left,no_enforcement2,0,0,-,right,11,14,500,1.45,left,left,1,2,1,0.073,9,145,292,18/05/2020,18:43:20
5e68ff434db49c01d7dbedd2,27,male,1,2,90,Clear_profit_side,no_enforcement2,0,0,-,right,16,9,500,1.45,right,right,2,1,1,0.057,9,145,292,18/05/2020,18:43:20
5e68ff434db49c01d7dbedd2,27,male,1,2,91,Ambigous_right,no_enforcement2,0,0,-,right,14,11,500,1.45,right,right,2,1,1,0.073,9,145,292,18/05/2020,18:43:20
5e68ff434db49c01d7dbedd2,27,male,1,2,92,Clear_not_profit_side,no_enforcement2,0,0,-,right,9,16,500,1.45,left,left,1,2,1,0.069,9,145,292,18/05/2020,18:43:20
5e68ff434db49c01d7dbedd2,27,male,1,2,93,Clear_not_profit_side,no_enforcement2,0,0,-,right,9,16,500,1.45,left,left,1,2,1,0.062,9,145,292,18/05/2020,18:43:20
5e68ff434db49c01d7dbedd2,27,male,1,2,94,Clear_profit_side,no_enforcement2,0,0,-,right,16,9,500,1.45,right,right,2,1,1,0.059,9,145,292,18/05/2020,18:43:20
5e68ff434db49c01d7dbedd2,27,male,1,2,95,Ambigous_right,no_enforcement2,0,0,-,right,14,11,500,1.45,right,right,2,1,1,0.064,9,145,292,18/05/2020,18:43:20
5e68ff434db49c01d7dbedd2,27,male,1,2,96,Ambigous_right,no_enforcement2,0,0,-,right,14,11,500,1.45,right,right,2,1,1,0.093,9,145,292,18/05/2020,18:43:20
5e68ff434db49c01d7dbedd2,27,male,1,2,97,Ambigous_right,no_enforcement2,0,0,-,right,14,11,500,1.45,right,right,2,1,1,0.065,9,145,292,18/05/2020,18:43:20
5e68ff434db49c01d7dbedd2,27,male,1,2,98,Clear_profit_side,no_enforcement2,0,0,-,right,16,9,500,1.45,right,right,2,1,1,0.043,9,145,292,18/05/2020,18:43:20
5e68ff434db49c01d7dbedd2,27,male,1,2,99,Ambigous_right,no_enforcement2,0,0,-,right,14,11,500,1.45,right,right,2,1,1,0.059,9,145,292,18/05/2020,18:43:20
5e68ff434db49c01d7dbedd2,27,male,1,2,100,Clear_not_profit_side,no_enforcement2,0,0,-,right,9,16,500,1.45,left,left,1,2,1,0.057,9,145,292,18/05/2020,18:43:20
5e836b26ac330b064f3c861e,24,female,1,1,1,Clear_profit_side,high_enforcement,90,1,20,right,16,9,500,1.45,right,right,20,-19,1,0.3,6,797,1479,18/05/2020,17:57:49
5e836b26ac330b064f3c861e,24,female,1,1,2,Clear_profit_side,high_enforcement,90,1,20,right,16,9,500,1.45,right,right,20,-19,1,0.239,6,797,1479,18/05/2020,17:57:49
5e836b26ac330b064f3c861e,24,female,1,1,3,Ambigous_left,high_enforcement,90,0,-,right,11,14,500,1.45,left,left,1,20,1,0.25,6,797,1479,18/05/2020,17:57:49
5e836b26ac330b064f3c861e,24,female,1,1,4,Ambigous_right,high_enforcement,90,1,20,right,14,11,500,1.45,right,right,20,-19,1,0.24,6,797,1479,18/05/2020,17:57:49
5e836b26ac330b064f3c861e,24,female,1,1,5,Clear_not_profit_side,high_enforcement,90,1,20,right,9,16,500,1.45,left,left,1,0,1,0.235,6,797,1479,18/05/2020,17:57:49
5e836b26ac330b064f3c861e,24,female,1,1,6,Clear_profit_side,high_enforcement,90,1,20,right,16,9,500,1.45,right,right,20,-19,1,0.222,6,797,1479,18/05/2020,17:57:49
5e836b26ac330b064f3c861e,24,female,1,1,7,Clear_profit_side,high_enforcement,90,1,20,right,16,9,500,1.45,right,right,20,-19,1,0.219,6,797,1479,18/05/2020,17:57:49
5e836b26ac330b064f3c861e,24,female,1,1,8,Ambigous_right,high_enforcement,90,1,20,right,14,11,500,1.45,right,right,20,-19,1,0.365,6,797,1479,18/05/2020,17:57:49
5e836b26ac330b064f3c861e,24,female,1,1,9,Clear_not_profit_side,high_enforcement,90,1,20,right,9,16,500,1.45,left,left,1,0,1,0.204,6,797,1479,18/05/2020,17:57:49
5e836b26ac330b064f3c861e,24,female,1,1,10,Clear_profit_side,high_enforcement,90,1,20,right,16,9,500,1.45,right,right,20,-19,1,0.226,6,797,1479,18/05/2020,17:57:49
5e836b26ac330b064f3c861e,24,female,1,1,11,Clear_not_profit_side,high_enforcement,90,1,20,right,9,16,500,1.45,left,left,1,0,1,0.222,6,797,1479,18/05/2020,17:57:49
5e836b26ac330b064f3c861e,24,female,1,1,12,Clear_not_profit_side,high_enforcement,90,1,20,right,9,16,500,1.45,left,left,1,0,1,0.183,6,797,1479,18/05/2020,17:57:49
5e836b26ac330b064f3c861e,24,female,1,1,13,Clear_not_profit_side,high_enforcement,90,1,20,right,9,16,500,1.45,left,left,1,0,1,0.148,6,797,1479,18/05/2020,17:57:49
5e836b26ac330b064f3c861e,24,female,1,1,14,Clear_not_profit_side,high_enforcement,90,1,20,right,9,16,500,1.45,left,left,1,0,1,0.145,6,797,1479,18/05/2020,17:57:49
5e836b26ac330b064f3c861e,24,female,1,1,15,Clear_not_profit_side,high_enforcement,90,1,20,right,9,16,500,1.45,left,left,1,0,1,0.159,6,797,1479,18/05/2020,17:57:49
5e836b26ac330b064f3c861e,24,female,1,1,16,Clear_not_profit_side,high_enforcement,90,1,20,right,9,16,500,1.45,left,left,1,0,1,0.214,6,797,1479,18/05/2020,17:57:49
5e836b26ac330b064f3c861e,24,female,1,1,17,Ambigous_right,high_enforcement,90,1,20,right,14,11,500,1.45,right,left,-19,0,0,0.548,6,797,1479,18/05/2020,17:57:49
5e836b26ac330b064f3c861e,24,female,1,1,18,Clear_not_profit_side,high_enforcement,90,1,20,right,9,16,500,1.45,left,left,1,0,1,0.218,6,797,1479,18/05/2020,17:57:49
5e836b26ac330b064f3c861e,24,female,1,1,19,Clear_profit_side,high_enforcement,90,1,20,right,16,9,500,1.45,right,right,20,-19,1,0.195,6,797,1479,18/05/2020,17:57:49
5e836b26ac330b064f3c861e,24,female,1,1,20,Clear_not_profit_side,high_enforcement,90,1,20,right,9,16,500,1.45,left,left,1,0,1,0.176,6,797,1479,18/05/2020,17:57:49
5e836b26ac330b064f3c861e,24,female,1,1,21,Clear_not_profit_side,high_enforcement,90,1,20,right,9,16,500,1.45,left,left,1,0,1,0.139,6,797,1479,18/05/2020,17:57:49
5e836b26ac330b064f3c861e,24,female,1,1,22,Clear_profit_side,high_enforcement,90,1,20,right,16,9,500,1.45,right,right,20,-19,1,0.216,6,797,1479,18/05/2020,17:57:49
5e836b26ac330b064f3c861e,24,female,1,1,23,Ambigous_right,high_enforcement,90,1,20,right,14,11,500,1.45,right,right,20,-19,1,0.237,6,797,1479,18/05/2020,17:57:49
5e836b26ac330b064f3c861e,24,female,1,1,24,Clear_not_profit_side,high_enforcement,90,1,20,right,9,16,500,1.45,left,left,1,0,1,0.181,6,797,1479,18/05/2020,17:57:49
5e836b26ac330b064f3c861e,24,female,1,1,25,Ambigous_right,high_enforcement,90,1,20,right,14,11,500,1.45,right,right,20,-19,1,0.291,6,797,1479,18/05/2020,17:57:49
5e836b26ac330b064f3c861e,24,female,1,1,26,Ambigous_right,high_enforcement,90,1,20,right,14,11,500,1.45,right,right,20,-19,1,0.147,6,797,1479,18/05/2020,17:57:49
5e836b26ac330b064f3c861e,24,female,1,1,27,Ambigous_left,high_enforcement,90,1,20,right,11,14,500,1.45,left,left,1,0,1,0.192,6,797,1479,18/05/2020,17:57:49
5e836b26ac330b064f3c861e,24,female,1,1,28,Ambigous_right,high_enforcement,90,1,20,right,14,11,500,1.45,right,right,20,-19,1,0.145,6,797,1479,18/05/2020,17:57:49
5e836b26ac330b064f3c861e,24,female,1,1,29,Ambigous_left,high_enforcement,90,1,20,right,11,14,500,1.45,left,left,1,0,1,0.156,6,797,1479,18/05/2020,17:57:49
5e836b26ac330b064f3c861e,24,female,1,1,30,Ambigous_right,high_enforcement,90,1,20,right,14,11,500,1.45,right,right,20,-19,1,0.209,6,797,1479,18/05/2020,17:57:49
5e836b26ac330b064f3c861e,24,female,1,1,31,Ambigous_left,high_enforcement,90,1,20,right,11,14,500,1.45,left,left,1,0,1,0.177,6,797,1479,18/05/2020,17:57:49
5e836b26ac330b064f3c861e,24,female,1,1,32,Clear_not_profit_side,high_enforcement,90,1,20,right,9,16,500,1.45,left,left,1,0,1,0.122,6,797,1479,18/05/2020,17:57:49
5e836b26ac330b064f3c861e,24,female,1,1,33,Ambigous_left,high_enforcement,90,1,20,right,11,14,500,1.45,left,left,1,0,1,0.245,6,797,1479,18/05/2020,17:57:49
5e836b26ac330b064f3c861e,24,female,1,1,34,Clear_not_profit_side,high_enforcement,90,1,20,right,9,16,500,1.45,left,left,1,0,1,0.148,6,797,1479,18/05/2020,17:57:49
5e836b26ac330b064f3c861e,24,female,1,1,35,Clear_profit_side,high_enforcement,90,1,20,right,16,9,500,1.45,right,right,20,-19,1,0.191,6,797,1479,18/05/2020,17:57:49
5e836b26ac330b064f3c861e,24,female,1,1,36,Clear_not_profit_side,high_enforcement,90,1,20,right,9,16,500,1.45,left,left,1,0,1,0.168,6,797,1479,18/05/2020,17:57:49
5e836b26ac330b064f3c861e,24,female,1,1,37,Clear_not_profit_side,high_enforcement,90,1,20,right,9,16,500,1.45,left,left,1,0,1,0.123,6,797,1479,18/05/2020,17:57:49
5e836b26ac330b064f3c861e,24,female,1,1,38,Ambigous_left,high_enforcement,90,1,20,right,11,14,500,1.45,left,left,1,0,1,0.158,6,797,1479,18/05/2020,17:57:49
5e836b26ac330b064f3c861e,24,female,1,1,39,Clear_profit_side,high_enforcement,90,1,20,right,16,9,500,1.45,right,right,20,-19,1,0.181,6,797,1479,18/05/2020,17:57:49
5e836b26ac330b064f3c861e,24,female,1,1,40,Ambigous_right,high_enforcement,90,1,20,right,14,11,500,1.45,right,right,20,-19,1,0.266,6,797,1479,18/05/2020,17:57:49
5e836b26ac330b064f3c861e,24,female,1,1,41,Clear_not_profit_side,high_enforcement,90,1,20,right,9,16,500,1.45,left,left,1,0,1,0.189,6,797,1479,18/05/2020,17:57:49
5e836b26ac330b064f3c861e,24,female,1,1,42,Ambigous_left,high_enforcement,90,1,20,right,11,14,500,1.45,left,left,1,0,1,0.129,6,797,1479,18/05/2020,17:57:49
5e836b26ac330b064f3c861e,24,female,1,1,43,Clear_not_profit_side,high_enforcement,90,1,20,right,9,16,500,1.45,left,left,1,0,1,0.119,6,797,1479,18/05/2020,17:57:49
5e836b26ac330b064f3c861e,24,female,1,1,44,Ambigous_left,high_enforcement,90,0,-,right,11,14,500,1.45,left,left,1,20,1,0.118,6,797,1479,18/05/2020,17:57:49
5e836b26ac330b064f3c861e,24,female,1,1,45,Ambigous_right,high_enforcement,90,1,20,right,14,11,500,1.45,right,right,20,-19,1,0.199,6,797,1479,18/05/2020,17:57:49
5e836b26ac330b064f3c861e,24,female,1,1,46,Clear_not_profit_side,high_enforcement,90,1,20,right,9,16,500,1.45,left,left,1,0,1,0.185,6,797,1479,18/05/2020,17:57:49
5e836b26ac330b064f3c861e,24,female,1,1,47,Ambigous_right,high_enforcement,90,1,20,right,14,11,500,1.45,right,right,20,-19,1,0.173,6,797,1479,18/05/2020,17:57:49
