user_id,age,gender,attention,block_number,trial_number,trial_type,conditions,p_inspection,inspection,fine_size,profitable_side,points_right,points_left,exchange_ratio,basic_payment,true_side,choice,trial_payoff,alternative_payoff,choice_correct,rt_choice,block_errors,final_errors,block_payoff,final_payoff,bonus,final_payment,date,time,error
569051eca3b94e000b6bed59,42,female,1,1,1,Ambigous_left,low_enforcement,10,0,0,right,14,16,1000,1.45,left,left,0.0,10.0,1,3.645,14,28,371.0,782.0,0.782,2.2319999999999998,12-06-2020,14:35:36,0
569051eca3b94e000b6bed59,42,female,1,1,3,Clear_not_profit_side,low_enforcement,10,0,0,right,12,18,1000,1.45,left,left,0.0,10.0,1,0.192,14,28,371.0,782.0,0.782,2.2319999999999998,12-06-2020,14:35:36,0
569051eca3b94e000b6bed59,42,female,1,1,4,Clear_not_profit_side,low_enforcement,10,0,0,right,12,18,1000,1.45,left,left,0.0,10.0,1,0.193,14,28,371.0,782.0,0.782,2.2319999999999998,12-06-2020,14:35:36,0
569051eca3b94e000b6bed59,42,female,1,1,6,Clear_not_profit_side,low_enforcement,10,0,0,right,12,18,1000,1.45,left,left,0.0,10.0,1,0.214,14,28,371.0,782.0,0.782,2.2319999999999998,12-06-2020,14:35:36,0
569051eca3b94e000b6bed59,42,female,1,1,7,Ambigous_left,low_enforcement,10,0,0,right,14,16,1000,1.45,left,left,0.0,10.0,1,0.182,14,28,371.0,782.0,0.782,2.2319999999999998,12-06-2020,14:35:36,0
569051eca3b94e000b6bed59,42,female,1,1,10,Clear_not_profit_side,low_enforcement,10,0,0,right,12,18,1000,1.45,left,left,0.0,10.0,1,0.19899999999999998,14,28,371.0,782.0,0.782,2.2319999999999998,12-06-2020,14:35:36,0
569051eca3b94e000b6bed59,42,female,1,1,12,Ambigous_left,low_enforcement,10,0,0,right,14,16,1000,1.45,left,left,0.0,10.0,1,0.183,14,28,371.0,782.0,0.782,2.2319999999999998,12-06-2020,14:35:36,0
569051eca3b94e000b6bed59,42,female,1,1,14,Clear_not_profit_side,low_enforcement,10,1,99,right,12,18,1000,1.45,left,left,0.0,-89.0,1,0.17600000000000002,14,28,371.0,782.0,0.782,2.2319999999999998,12-06-2020,14:35:36,0
569051eca3b94e000b6bed59,42,female,1,1,15,Ambigous_left,low_enforcement,10,0,0,right,14,16,1000,1.45,left,left,0.0,10.0,1,0.16,14,28,371.0,782.0,0.782,2.2319999999999998,12-06-2020,14:35:36,0
569051eca3b94e000b6bed59,42,female,1,1,16,Ambigous_left,low_enforcement,10,0,0,right,14,16,1000,1.45,left,right,10.0,0.0,0,0.172,14,28,371.0,782.0,0.782,2.2319999999999998,12-06-2020,14:35:36,1
569051eca3b94e000b6bed59,42,female,1,1,17,Clear_not_profit_side,low_enforcement,10,0,0,right,12,18,1000,1.45,left,left,0.0,10.0,1,0.29100000000000004,14,28,371.0,782.0,0.782,2.2319999999999998,12-06-2020,14:35:36,0
569051eca3b94e000b6bed59,42,female,1,1,20,Clear_not_profit_side,low_enforcement,10,0,0,right,12,18,1000,1.45,left,left,0.0,10.0,1,0.184,14,28,371.0,782.0,0.782,2.2319999999999998,12-06-2020,14:35:36,0
569051eca3b94e000b6bed59,42,female,1,1,23,Clear_not_profit_side,low_enforcement,10,0,0,right,12,18,1000,1.45,left,left,0.0,10.0,1,0.157,14,28,371.0,782.0,0.782,2.2319999999999998,12-06-2020,14:35:36,0
569051eca3b94e000b6bed59,42,female,1,1,24,Clear_not_profit_side,low_enforcement,10,0,0,right,12,18,1000,1.45,left,left,0.0,10.0,1,0.18899999999999997,14,28,371.0,782.0,0.782,2.2319999999999998,12-06-2020,14:35:36,0
569051eca3b94e000b6bed59,42,female,1,1,26,Ambigous_left,low_enforcement,10,0,0,right,14,16,1000,1.45,left,left,0.0,10.0,1,0.183,14,28,371.0,782.0,0.782,2.2319999999999998,12-06-2020,14:35:36,0
569051eca3b94e000b6bed59,42,female,1,1,27,Ambigous_left,low_enforcement,10,1,99,right,14,16,1000,1.45,left,right,-89.0,-99.0,0,0.168,14,28,371.0,782.0,0.782,2.2319999999999998,12-06-2020,14:35:36,1
569051eca3b94e000b6bed59,42,female,1,1,29,Ambigous_left,low_enforcement,10,0,0,right,14,16,1000,1.45,left,right,10.0,0.0,0,0.22699999999999998,14,28,371.0,782.0,0.782,2.2319999999999998,12-06-2020,14:35:36,1
569051eca3b94e000b6bed59,42,female,1,1,30,Clear_not_profit_side,low_enforcement,10,0,0,right,12,18,1000,1.45,left,left,0.0,10.0,1,0.184,14,28,371.0,782.0,0.782,2.2319999999999998,12-06-2020,14:35:36,0
569051eca3b94e000b6bed59,42,female,1,1,32,Ambigous_left,low_enforcement,10,0,0,right,14,16,1000,1.45,left,right,10.0,0.0,0,0.191,14,28,371.0,782.0,0.782,2.2319999999999998,12-06-2020,14:35:36,1
569051eca3b94e000b6bed59,42,female,1,1,33,Clear_not_profit_side,low_enforcement,10,1,99,right,12,18,1000,1.45,left,left,0.0,-89.0,1,0.172,14,28,371.0,782.0,0.782,2.2319999999999998,12-06-2020,14:35:36,0
569051eca3b94e000b6bed59,42,female,1,1,34,Clear_not_profit_side,low_enforcement,10,0,0,right,12,18,1000,1.45,left,left,0.0,10.0,1,0.16699999999999998,14,28,371.0,782.0,0.782,2.2319999999999998,12-06-2020,14:35:36,0
569051eca3b94e000b6bed59,42,female,1,1,36,Ambigous_left,low_enforcement,10,0,0,right,14,16,1000,1.45,left,left,0.0,10.0,1,0.156,14,28,371.0,782.0,0.782,2.2319999999999998,12-06-2020,14:35:36,0
569051eca3b94e000b6bed59,42,female,1,1,38,Ambigous_left,low_enforcement,10,0,0,right,14,16,1000,1.45,left,left,0.0,10.0,1,0.196,14,28,371.0,782.0,0.782,2.2319999999999998,12-06-2020,14:35:36,0
569051eca3b94e000b6bed59,42,female,1,1,40,Clear_not_profit_side,low_enforcement,10,0,0,right,12,18,1000,1.45,left,right,10.0,0.0,0,0.249,14,28,371.0,782.0,0.782,2.2319999999999998,12-06-2020,14:35:36,1
569051eca3b94e000b6bed59,42,female,1,1,41,Ambigous_left,low_enforcement,10,0,0,right,14,16,1000,1.45,left,left,0.0,10.0,1,0.17,14,28,371.0,782.0,0.782,2.2319999999999998,12-06-2020,14:35:36,0
569051eca3b94e000b6bed59,42,female,1,1,42,Ambigous_left,low_enforcement,10,0,0,right,14,16,1000,1.45,left,left,0.0,10.0,1,0.309,14,28,371.0,782.0,0.782,2.2319999999999998,12-06-2020,14:35:36,0
569051eca3b94e000b6bed59,42,female,1,1,44,Clear_not_profit_side,low_enforcement,10,0,0,right,12,18,1000,1.45,left,left,0.0,10.0,1,0.275,14,28,371.0,782.0,0.782,2.2319999999999998,12-06-2020,14:35:36,0
569051eca3b94e000b6bed59,42,female,1,1,45,Clear_not_profit_side,low_enforcement,10,0,0,right,12,18,1000,1.45,left,left,0.0,10.0,1,0.14800000000000002,14,28,371.0,782.0,0.782,2.2319999999999998,12-06-2020,14:35:36,0
569051eca3b94e000b6bed59,42,female,1,1,46,Ambigous_left,low_enforcement,10,0,0,right,14,16,1000,1.45,left,left,0.0,10.0,1,0.152,14,28,371.0,782.0,0.782,2.2319999999999998,12-06-2020,14:35:36,0
569051eca3b94e000b6bed59,42,female,1,1,47,Clear_not_profit_side,low_enforcement,10,0,0,right,12,18,1000,1.45,left,left,0.0,10.0,1,0.16,14,28,371.0,782.0,0.782,2.2319999999999998,12-06-2020,14:35:36,0
569051eca3b94e000b6bed59,42,female,1,1,48,Clear_not_profit_side,low_enforcement,10,0,0,right,12,18,1000,1.45,left,left,0.0,10.0,1,0.159,14,28,371.0,782.0,0.782,2.2319999999999998,12-06-2020,14:35:36,0
569051eca3b94e000b6bed59,42,female,1,1,51,Clear_not_profit_side,low_enforcement,10,0,0,right,12,18,1000,1.45,left,left,0.0,10.0,1,0.267,14,28,371.0,782.0,0.782,2.2319999999999998,12-06-2020,14:35:36,0
569051eca3b94e000b6bed59,42,female,1,1,55,Ambigous_left,low_enforcement,10,0,0,right,14,16,1000,1.45,left,left,0.0,10.0,1,0.175,14,28,371.0,782.0,0.782,2.2319999999999998,12-06-2020,14:35:36,0
569051eca3b94e000b6bed59,42,female,1,1,56,Clear_not_profit_side,low_enforcement,10,0,0,right,12,18,1000,1.45,left,left,0.0,10.0,1,0.16899999999999998,14,28,371.0,782.0,0.782,2.2319999999999998,12-06-2020,14:35:36,0
569051eca3b94e000b6bed59,42,female,1,1,57,Clear_not_profit_side,low_enforcement,10,1,99,right,12,18,1000,1.45,left,left,0.0,-89.0,1,0.152,14,28,371.0,782.0,0.782,2.2319999999999998,12-06-2020,14:35:36,0
569051eca3b94e000b6bed59,42,female,1,1,58,Ambigous_left,low_enforcement,10,0,0,right,14,16,1000,1.45,left,left,0.0,10.0,1,0.151,14,28,371.0,782.0,0.782,2.2319999999999998,12-06-2020,14:35:36,0
569051eca3b94e000b6bed59,42,female,1,1,59,Clear_not_profit_side,low_enforcement,10,0,0,right,12,18,1000,1.45,left,left,0.0,10.0,1,0.313,14,28,371.0,782.0,0.782,2.2319999999999998,12-06-2020,14:35:36,0
569051eca3b94e000b6bed59,42,female,1,1,61,Clear_not_profit_side,low_enforcement,10,0,0,right,12,18,1000,1.45,left,left,0.0,10.0,1,0.13699999999999998,14,28,371.0,782.0,0.782,2.2319999999999998,12-06-2020,14:35:36,0
569051eca3b94e000b6bed59,42,female,1,1,63,Clear_not_profit_side,low_enforcement,10,0,0,right,12,18,1000,1.45,left,left,0.0,10.0,1,0.136,14,28,371.0,782.0,0.782,2.2319999999999998,12-06-2020,14:35:36,0
569051eca3b94e000b6bed59,42,female,1,1,67,Clear_not_profit_side,low_enforcement,10,0,0,right,12,18,1000,1.45,left,left,0.0,10.0,1,0.17600000000000002,14,28,371.0,782.0,0.782,2.2319999999999998,12-06-2020,14:35:36,0
569051eca3b94e000b6bed59,42,female,1,1,71,Clear_not_profit_side,low_enforcement,10,0,0,right,12,18,1000,1.45,left,left,0.0,10.0,1,0.18100000000000002,14,28,371.0,782.0,0.782,2.2319999999999998,12-06-2020,14:35:36,0
569051eca3b94e000b6bed59,42,female,1,1,74,Ambigous_left,low_enforcement,10,0,0,right,14,16,1000,1.45,left,right,10.0,0.0,0,0.212,14,28,371.0,782.0,0.782,2.2319999999999998,12-06-2020,14:35:36,1
569051eca3b94e000b6bed59,42,female,1,1,77,Clear_not_profit_side,low_enforcement,10,0,0,right,12,18,1000,1.45,left,left,0.0,10.0,1,0.14,14,28,371.0,782.0,0.782,2.2319999999999998,12-06-2020,14:35:36,0
569051eca3b94e000b6bed59,42,female,1,1,79,Ambigous_left,low_enforcement,10,0,0,right,14,16,1000,1.45,left,right,10.0,0.0,0,0.18899999999999997,14,28,371.0,782.0,0.782,2.2319999999999998,12-06-2020,14:35:36,1
569051eca3b94e000b6bed59,42,female,1,1,80,Clear_not_profit_side,low_enforcement,10,0,0,right,12,18,1000,1.45,left,left,0.0,10.0,1,0.142,14,28,371.0,782.0,0.782,2.2319999999999998,12-06-2020,14:35:36,0
569051eca3b94e000b6bed59,42,female,1,1,81,Ambigous_left,low_enforcement,10,0,0,right,14,16,1000,1.45,left,left,0.0,10.0,1,0.18600000000000005,14,28,371.0,782.0,0.782,2.2319999999999998,12-06-2020,14:35:36,0
569051eca3b94e000b6bed59,42,female,1,1,82,Ambigous_left,low_enforcement,10,0,0,right,14,16,1000,1.45,left,right,10.0,0.0,0,0.233,14,28,371.0,782.0,0.782,2.2319999999999998,12-06-2020,14:35:36,1
569051eca3b94e000b6bed59,42,female,1,1,83,Ambigous_left,low_enforcement,10,0,0,right,14,16,1000,1.45,left,right,10.0,0.0,0,0.204,14,28,371.0,782.0,0.782,2.2319999999999998,12-06-2020,14:35:36,1
569051eca3b94e000b6bed59,42,female,1,1,84,Clear_not_profit_side,low_enforcement,10,0,0,right,12,18,1000,1.45,left,left,0.0,10.0,1,0.157,14,28,371.0,782.0,0.782,2.2319999999999998,12-06-2020,14:35:36,0
569051eca3b94e000b6bed59,42,female,1,1,88,Ambigous_left,low_enforcement,10,0,0,right,14,16,1000,1.45,left,left,0.0,10.0,1,0.215,14,28,371.0,782.0,0.782,2.2319999999999998,12-06-2020,14:35:36,0
569051eca3b94e000b6bed59,42,female,1,1,90,Clear_not_profit_side,low_enforcement,10,0,0,right,12,18,1000,1.45,left,left,0.0,10.0,1,0.172,14,28,371.0,782.0,0.782,2.2319999999999998,12-06-2020,14:35:36,0
569051eca3b94e000b6bed59,42,female,1,1,91,Clear_not_profit_side,low_enforcement,10,0,0,right,12,18,1000,1.45,left,left,0.0,10.0,1,0.239,14,28,371.0,782.0,0.782,2.2319999999999998,12-06-2020,14:35:36,0
569051eca3b94e000b6bed59,42,female,1,1,92,Clear_not_profit_side,low_enforcement,10,0,0,right,12,18,1000,1.45,left,left,0.0,10.0,1,0.22699999999999998,14,28,371.0,782.0,0.782,2.2319999999999998,12-06-2020,14:35:36,0
569051eca3b94e000b6bed59,42,female,1,1,93,Clear_not_profit_side,low_enforcement,10,0,0,right,12,18,1000,1.45,left,left,0.0,10.0,1,0.159,14,28,371.0,782.0,0.782,2.2319999999999998,12-06-2020,14:35:36,0
569051eca3b94e000b6bed59,42,female,1,1,96,Ambigous_left,low_enforcement,10,0,0,right,14,16,1000,1.45,left,left,0.0,10.0,1,0.215,14,28,371.0,782.0,0.782,2.2319999999999998,12-06-2020,14:35:36,0
569051eca3b94e000b6bed59,42,female,1,1,97,Clear_not_profit_side,low_enforcement,10,0,0,right,12,18,1000,1.45,left,left,0.0,10.0,1,0.217,14,28,371.0,782.0,0.782,2.2319999999999998,12-06-2020,14:35:36,0
569051eca3b94e000b6bed59,42,female,1,1,98,Ambigous_left,low_enforcement,10,0,0,right,14,16,1000,1.45,left,left,0.0,10.0,1,0.295,14,28,371.0,782.0,0.782,2.2319999999999998,12-06-2020,14:35:36,0
569051eca3b94e000b6bed59,42,female,1,1,99,Clear_not_profit_side,low_enforcement,10,0,0,right,12,18,1000,1.45,left,left,0.0,10.0,1,0.168,14,28,371.0,782.0,0.782,2.2319999999999998,12-06-2020,14:35:36,0
569051eca3b94e000b6bed59,42,female,1,1,100,Ambigous_left,low_enforcement,10,0,0,right,14,16,1000,1.45,left,right,10.0,0.0,0,0.17300000000000001,14,28,371.0,782.0,0.782,2.2319999999999998,12-06-2020,14:35:36,1
569051eca3b94e000b6bed59,42,female,1,2,1,Ambigous_left,low_enforcement,10,0,0,right,14,16,1000,1.45,left,right,10.0,0.0,0,0.165,14,28,411.0,782.0,0.782,2.2319999999999998,12-06-2020,14:35:36,1
569051eca3b94e000b6bed59,42,female,1,2,2,Clear_not_profit_side,low_enforcement,10,0,0,right,12,18,1000,1.45,left,left,0.0,10.0,1,0.358,14,28,411.0,782.0,0.782,2.2319999999999998,12-06-2020,14:35:36,0
569051eca3b94e000b6bed59,42,female,1,2,3,Ambigous_left,low_enforcement,10,0,0,right,14,16,1000,1.45,left,left,0.0,10.0,1,0.139,14,28,411.0,782.0,0.782,2.2319999999999998,12-06-2020,14:35:36,0
569051eca3b94e000b6bed59,42,female,1,2,4,Clear_not_profit_side,low_enforcement,10,0,0,right,12,18,1000,1.45,left,left,0.0,10.0,1,0.175,14,28,411.0,782.0,0.782,2.2319999999999998,12-06-2020,14:35:36,0
569051eca3b94e000b6bed59,42,female,1,2,6,Ambigous_left,low_enforcement,10,0,0,right,14,16,1000,1.45,left,left,0.0,10.0,1,0.163,14,28,411.0,782.0,0.782,2.2319999999999998,12-06-2020,14:35:36,0
569051eca3b94e000b6bed59,42,female,1,2,9,Ambigous_left,low_enforcement,10,0,0,right,14,16,1000,1.45,left,left,0.0,10.0,1,0.151,14,28,411.0,782.0,0.782,2.2319999999999998,12-06-2020,14:35:36,0
569051eca3b94e000b6bed59,42,female,1,2,10,Ambigous_left,low_enforcement,10,0,0,right,14,16,1000,1.45,left,right,10.0,0.0,0,0.18600000000000005,14,28,411.0,782.0,0.782,2.2319999999999998,12-06-2020,14:35:36,1
569051eca3b94e000b6bed59,42,female,1,2,12,Clear_not_profit_side,low_enforcement,10,1,99,right,12,18,1000,1.45,left,left,0.0,-89.0,1,0.23600000000000002,14,28,411.0,782.0,0.782,2.2319999999999998,12-06-2020,14:35:36,0
569051eca3b94e000b6bed59,42,female,1,2,13,Clear_not_profit_side,low_enforcement,10,0,0,right,12,18,1000,1.45,left,left,0.0,10.0,1,0.153,14,28,411.0,782.0,0.782,2.2319999999999998,12-06-2020,14:35:36,0
569051eca3b94e000b6bed59,42,female,1,2,21,Clear_not_profit_side,low_enforcement,10,0,0,right,12,18,1000,1.45,left,left,0.0,10.0,1,0.166,14,28,411.0,782.0,0.782,2.2319999999999998,12-06-2020,14:35:36,0
569051eca3b94e000b6bed59,42,female,1,2,23,Ambigous_left,low_enforcement,10,0,0,right,14,16,1000,1.45,left,right,10.0,0.0,0,0.165,14,28,411.0,782.0,0.782,2.2319999999999998,12-06-2020,14:35:36,1
569051eca3b94e000b6bed59,42,female,1,2,25,Clear_not_profit_side,low_enforcement,10,0,0,right,12,18,1000,1.45,left,left,0.0,10.0,1,0.158,14,28,411.0,782.0,0.782,2.2319999999999998,12-06-2020,14:35:36,0
569051eca3b94e000b6bed59,42,female,1,2,26,Ambigous_left,low_enforcement,10,0,0,right,14,16,1000,1.45,left,left,0.0,10.0,1,0.159,14,28,411.0,782.0,0.782,2.2319999999999998,12-06-2020,14:35:36,0
569051eca3b94e000b6bed59,42,female,1,2,27,Ambigous_left,low_enforcement,10,0,0,right,14,16,1000,1.45,left,left,0.0,10.0,1,0.284,14,28,411.0,782.0,0.782,2.2319999999999998,12-06-2020,14:35:36,0
569051eca3b94e000b6bed59,42,female,1,2,28,Clear_not_profit_side,low_enforcement,10,0,0,right,12,18,1000,1.45,left,left,0.0,10.0,1,0.172,14,28,411.0,782.0,0.782,2.2319999999999998,12-06-2020,14:35:36,0
569051eca3b94e000b6bed59,42,female,1,2,30,Clear_not_profit_side,low_enforcement,10,0,0,right,12,18,1000,1.45,left,left,0.0,10.0,1,0.171,14,28,411.0,782.0,0.782,2.2319999999999998,12-06-2020,14:35:36,0
569051eca3b94e000b6bed59,42,female,1,2,31,Ambigous_left,low_enforcement,10,0,0,right,14,16,1000,1.45,left,right,10.0,0.0,0,0.32299999999999995,14,28,411.0,782.0,0.782,2.2319999999999998,12-06-2020,14:35:36,1
569051eca3b94e000b6bed59,42,female,1,2,32,Clear_not_profit_side,low_enforcement,10,0,0,right,12,18,1000,1.45,left,left,0.0,10.0,1,0.158,14,28,411.0,782.0,0.782,2.2319999999999998,12-06-2020,14:35:36,0
569051eca3b94e000b6bed59,42,female,1,2,33,Ambigous_left,low_enforcement,10,0,0,right,14,16,1000,1.45,left,left,0.0,10.0,1,0.151,14,28,411.0,782.0,0.782,2.2319999999999998,12-06-2020,14:35:36,0
569051eca3b94e000b6bed59,42,female,1,2,34,Ambigous_left,low_enforcement,10,0,0,right,14,16,1000,1.45,left,right,10.0,0.0,0,0.151,14,28,411.0,782.0,0.782,2.2319999999999998,12-06-2020,14:35:36,1
569051eca3b94e000b6bed59,42,female,1,2,35,Clear_not_profit_side,low_enforcement,10,0,0,right,12,18,1000,1.45,left,left,0.0,10.0,1,0.16,14,28,411.0,782.0,0.782,2.2319999999999998,12-06-2020,14:35:36,0
569051eca3b94e000b6bed59,42,female,1,2,37,Clear_not_profit_side,low_enforcement,10,0,0,right,12,18,1000,1.45,left,left,0.0,10.0,1,0.166,14,28,411.0,782.0,0.782,2.2319999999999998,12-06-2020,14:35:36,0
569051eca3b94e000b6bed59,42,female,1,2,38,Ambigous_left,low_enforcement,10,0,0,right,14,16,1000,1.45,left,left,0.0,10.0,1,0.18600000000000005,14,28,411.0,782.0,0.782,2.2319999999999998,12-06-2020,14:35:36,0
569051eca3b94e000b6bed59,42,female,1,2,39,Clear_not_profit_side,low_enforcement,10,0,0,right,12,18,1000,1.45,left,left,0.0,10.0,1,0.19399999999999998,14,28,411.0,782.0,0.782,2.2319999999999998,12-06-2020,14:35:36,0
569051eca3b94e000b6bed59,42,female,1,2,40,Clear_not_profit_side,low_enforcement,10,0,0,right,12,18,1000,1.45,left,left,0.0,10.0,1,0.23,14,28,411.0,782.0,0.782,2.2319999999999998,12-06-2020,14:35:36,0
569051eca3b94e000b6bed59,42,female,1,2,41,Ambigous_left,low_enforcement,10,0,0,right,14,16,1000,1.45,left,right,10.0,0.0,0,0.128,14,28,411.0,782.0,0.782,2.2319999999999998,12-06-2020,14:35:36,1
569051eca3b94e000b6bed59,42,female,1,2,42,Clear_not_profit_side,low_enforcement,10,1,99,right,12,18,1000,1.45,left,left,0.0,-89.0,1,0.155,14,28,411.0,782.0,0.782,2.2319999999999998,12-06-2020,14:35:36,0
569051eca3b94e000b6bed59,42,female,1,2,44,Clear_not_profit_side,low_enforcement,10,0,0,right,12,18,1000,1.45,left,left,0.0,10.0,1,0.138,14,28,411.0,782.0,0.782,2.2319999999999998,12-06-2020,14:35:36,0
569051eca3b94e000b6bed59,42,female,1,2,46,Ambigous_left,low_enforcement,10,0,0,right,14,16,1000,1.45,left,left,0.0,10.0,1,0.175,14,28,411.0,782.0,0.782,2.2319999999999998,12-06-2020,14:35:36,0
569051eca3b94e000b6bed59,42,female,1,2,47,Ambigous_left,low_enforcement,10,0,0,right,14,16,1000,1.45,left,right,10.0,0.0,0,0.139,14,28,411.0,782.0,0.782,2.2319999999999998,12-06-2020,14:35:36,1
569051eca3b94e000b6bed59,42,female,1,2,49,Clear_not_profit_side,low_enforcement,10,1,99,right,12,18,1000,1.45,left,left,0.0,-89.0,1,0.145,14,28,411.0,782.0,0.782,2.2319999999999998,12-06-2020,14:35:36,0
569051eca3b94e000b6bed59,42,female,1,2,50,Clear_not_profit_side,low_enforcement,10,0,0,right,12,18,1000,1.45,left,left,0.0,10.0,1,0.24600000000000002,14,28,411.0,782.0,0.782,2.2319999999999998,12-06-2020,14:35:36,0
569051eca3b94e000b6bed59,42,female,1,2,52,Clear_not_profit_side,low_enforcement,10,0,0,right,12,18,1000,1.45,left,left,0.0,10.0,1,0.16,14,28,411.0,782.0,0.782,2.2319999999999998,12-06-2020,14:35:36,0
569051eca3b94e000b6bed59,42,female,1,2,53,Clear_not_profit_side,low_enforcement,10,0,0,right,12,18,1000,1.45,left,left,0.0,10.0,1,0.16899999999999998,14,28,411.0,782.0,0.782,2.2319999999999998,12-06-2020,14:35:36,0
569051eca3b94e000b6bed59,42,female,1,2,54,Clear_not_profit_side,low_enforcement,10,1,99,right,12,18,1000,1.45,left,left,0.0,-89.0,1,0.191,14,28,411.0,782.0,0.782,2.2319999999999998,12-06-2020,14:35:36,0
569051eca3b94e000b6bed59,42,female,1,2,55,Clear_not_profit_side,low_enforcement,10,0,0,right,12,18,1000,1.45,left,left,0.0,10.0,1,0.159,14,28,411.0,782.0,0.782,2.2319999999999998,12-06-2020,14:35:36,0
569051eca3b94e000b6bed59,42,female,1,2,56,Ambigous_left,low_enforcement,10,0,0,right,14,16,1000,1.45,left,left,0.0,10.0,1,0.174,14,28,411.0,782.0,0.782,2.2319999999999998,12-06-2020,14:35:36,0
569051eca3b94e000b6bed59,42,female,1,2,58,Ambigous_left,low_enforcement,10,0,0,right,14,16,1000,1.45,left,left,0.0,10.0,1,0.226,14,28,411.0,782.0,0.782,2.2319999999999998,12-06-2020,14:35:36,0
569051eca3b94e000b6bed59,42,female,1,2,61,Clear_not_profit_side,low_enforcement,10,0,0,right,12,18,1000,1.45,left,left,0.0,10.0,1,0.14,14,28,411.0,782.0,0.782,2.2319999999999998,12-06-2020,14:35:36,0
569051eca3b94e000b6bed59,42,female,1,2,62,Ambigous_left,low_enforcement,10,1,99,right,14,16,1000,1.45,left,right,-89.0,-99.0,0,0.17300000000000001,14,28,411.0,782.0,0.782,2.2319999999999998,12-06-2020,14:35:36,1
569051eca3b94e000b6bed59,42,female,1,2,65,Clear_not_profit_side,low_enforcement,10,0,0,right,12,18,1000,1.45,left,left,0.0,10.0,1,0.154,14,28,411.0,782.0,0.782,2.2319999999999998,12-06-2020,14:35:36,0
569051eca3b94e000b6bed59,42,female,1,2,68,Clear_not_profit_side,low_enforcement,10,0,0,right,12,18,1000,1.45,left,left,0.0,10.0,1,0.135,14,28,411.0,782.0,0.782,2.2319999999999998,12-06-2020,14:35:36,0
569051eca3b94e000b6bed59,42,female,1,2,72,Clear_not_profit_side,low_enforcement,10,0,0,right,12,18,1000,1.45,left,left,0.0,10.0,1,0.155,14,28,411.0,782.0,0.782,2.2319999999999998,12-06-2020,14:35:36,0
569051eca3b94e000b6bed59,42,female,1,2,73,Clear_not_profit_side,low_enforcement,10,0,0,right,12,18,1000,1.45,left,left,0.0,10.0,1,0.21100000000000002,14,28,411.0,782.0,0.782,2.2319999999999998,12-06-2020,14:35:36,0
569051eca3b94e000b6bed59,42,female,1,2,74,Ambigous_left,low_enforcement,10,0,0,right,14,16,1000,1.45,left,left,0.0,10.0,1,0.154,14,28,411.0,782.0,0.782,2.2319999999999998,12-06-2020,14:35:36,0
569051eca3b94e000b6bed59,42,female,1,2,75,Clear_not_profit_side,low_enforcement,10,0,0,right,12,18,1000,1.45,left,right,10.0,0.0,0,0.11699999999999999,14,28,411.0,782.0,0.782,2.2319999999999998,12-06-2020,14:35:36,1
569051eca3b94e000b6bed59,42,female,1,2,76,Clear_not_profit_side,low_enforcement,10,0,0,right,12,18,1000,1.45,left,left,0.0,10.0,1,0.129,14,28,411.0,782.0,0.782,2.2319999999999998,12-06-2020,14:35:36,0
569051eca3b94e000b6bed59,42,female,1,2,77,Ambigous_left,low_enforcement,10,0,0,right,14,16,1000,1.45,left,left,0.0,10.0,1,0.141,14,28,411.0,782.0,0.782,2.2319999999999998,12-06-2020,14:35:36,0
569051eca3b94e000b6bed59,42,female,1,2,78,Ambigous_left,low_enforcement,10,0,0,right,14,16,1000,1.45,left,right,10.0,0.0,0,0.126,14,28,411.0,782.0,0.782,2.2319999999999998,12-06-2020,14:35:36,1
569051eca3b94e000b6bed59,42,female,1,2,79,Clear_not_profit_side,low_enforcement,10,0,0,right,12,18,1000,1.45,left,left,0.0,10.0,1,0.17600000000000002,14,28,411.0,782.0,0.782,2.2319999999999998,12-06-2020,14:35:36,0
569051eca3b94e000b6bed59,42,female,1,2,80,Ambigous_left,low_enforcement,10,0,0,right,14,16,1000,1.45,left,left,0.0,10.0,1,0.275,14,28,411.0,782.0,0.782,2.2319999999999998,12-06-2020,14:35:36,0
569051eca3b94e000b6bed59,42,female,1,2,82,Ambigous_left,low_enforcement,10,0,0,right,14,16,1000,1.45,left,left,0.0,10.0,1,0.16399999999999998,14,28,411.0,782.0,0.782,2.2319999999999998,12-06-2020,14:35:36,0
569051eca3b94e000b6bed59,42,female,1,2,84,Clear_not_profit_side,low_enforcement,10,0,0,right,12,18,1000,1.45,left,left,0.0,10.0,1,0.28600000000000003,14,28,411.0,782.0,0.782,2.2319999999999998,12-06-2020,14:35:36,0
569051eca3b94e000b6bed59,42,female,1,2,88,Clear_not_profit_side,low_enforcement,10,0,0,right,12,18,1000,1.45,left,left,0.0,10.0,1,0.24,14,28,411.0,782.0,0.782,2.2319999999999998,12-06-2020,14:35:36,0
569051eca3b94e000b6bed59,42,female,1,2,89,Ambigous_left,low_enforcement,10,0,0,right,14,16,1000,1.45,left,right,10.0,0.0,0,0.214,14,28,411.0,782.0,0.782,2.2319999999999998,12-06-2020,14:35:36,1
569051eca3b94e000b6bed59,42,female,1,2,90,Clear_not_profit_side,low_enforcement,10,0,0,right,12,18,1000,1.45,left,left,0.0,10.0,1,0.20800000000000002,14,28,411.0,782.0,0.782,2.2319999999999998,12-06-2020,14:35:36,0
569051eca3b94e000b6bed59,42,female,1,2,91,Clear_not_profit_side,low_enforcement,10,0,0,right,12,18,1000,1.45,left,left,0.0,10.0,1,0.235,14,28,411.0,782.0,0.782,2.2319999999999998,12-06-2020,14:35:36,0
569051eca3b94e000b6bed59,42,female,1,2,97,Ambigous_left,low_enforcement,10,0,0,right,14,16,1000,1.45,left,right,10.0,0.0,0,0.163,14,28,411.0,782.0,0.782,2.2319999999999998,12-06-2020,14:35:36,1
569051eca3b94e000b6bed59,42,female,1,2,99,Clear_not_profit_side,low_enforcement,10,0,0,right,12,18,1000,1.45,left,left,0.0,10.0,1,0.182,14,28,411.0,782.0,0.782,2.2319999999999998,12-06-2020,14:35:36,0
57e9346673e67300012b9173,23,female,1,1,1,Clear_not_profit_side,low_enforcement,10,0,0,right,12,18,1000,1.45,left,right,10.0,0.0,0,0.498,26,48,155.0,686.0,0.6859999999999999,2.136,12-06-2020,14:44:32,1
57e9346673e67300012b9173,23,female,1,1,4,Clear_not_profit_side,low_enforcement,10,0,0,right,12,18,1000,1.45,left,left,0.0,10.0,1,0.33299999999999996,26,48,155.0,686.0,0.6859999999999999,2.136,12-06-2020,14:44:32,0
57e9346673e67300012b9173,23,female,1,1,5,Clear_not_profit_side,low_enforcement,10,0,0,right,12,18,1000,1.45,left,left,0.0,10.0,1,0.4920000000000001,26,48,155.0,686.0,0.6859999999999999,2.136,12-06-2020,14:44:32,0
57e9346673e67300012b9173,23,female,1,1,6,Ambigous_left,low_enforcement,10,0,0,right,14,16,1000,1.45,left,right,10.0,0.0,0,0.285,26,48,155.0,686.0,0.6859999999999999,2.136,12-06-2020,14:44:32,1
57e9346673e67300012b9173,23,female,1,1,7,Ambigous_left,low_enforcement,10,0,0,right,14,16,1000,1.45,left,right,10.0,0.0,0,0.344,26,48,155.0,686.0,0.6859999999999999,2.136,12-06-2020,14:44:32,1
57e9346673e67300012b9173,23,female,1,1,8,Clear_not_profit_side,low_enforcement,10,0,0,right,12,18,1000,1.45,left,left,0.0,10.0,1,0.353,26,48,155.0,686.0,0.6859999999999999,2.136,12-06-2020,14:44:32,0
57e9346673e67300012b9173,23,female,1,1,9,Ambigous_left,low_enforcement,10,0,0,right,14,16,1000,1.45,left,right,10.0,0.0,0,0.37799999999999995,26,48,155.0,686.0,0.6859999999999999,2.136,12-06-2020,14:44:32,1
57e9346673e67300012b9173,23,female,1,1,10,Clear_not_profit_side,low_enforcement,10,0,0,right,12,18,1000,1.45,left,left,0.0,10.0,1,0.32,26,48,155.0,686.0,0.6859999999999999,2.136,12-06-2020,14:44:32,0
57e9346673e67300012b9173,23,female,1,1,12,Clear_not_profit_side,low_enforcement,10,0,0,right,12,18,1000,1.45,left,right,10.0,0.0,0,0.348,26,48,155.0,686.0,0.6859999999999999,2.136,12-06-2020,14:44:32,1
57e9346673e67300012b9173,23,female,1,1,13,Ambigous_left,low_enforcement,10,0,0,right,14,16,1000,1.45,left,left,0.0,10.0,1,0.445,26,48,155.0,686.0,0.6859999999999999,2.136,12-06-2020,14:44:32,0
57e9346673e67300012b9173,23,female,1,1,15,Ambigous_left,low_enforcement,10,0,0,right,14,16,1000,1.45,left,right,10.0,0.0,0,0.366,26,48,155.0,686.0,0.6859999999999999,2.136,12-06-2020,14:44:32,1
57e9346673e67300012b9173,23,female,1,1,16,Ambigous_left,low_enforcement,10,1,99,right,14,16,1000,1.45,left,right,-89.0,-99.0,0,0.301,26,48,155.0,686.0,0.6859999999999999,2.136,12-06-2020,14:44:32,1
57e9346673e67300012b9173,23,female,1,1,19,Ambigous_left,low_enforcement,10,0,0,right,14,16,1000,1.45,left,left,0.0,10.0,1,0.225,26,48,155.0,686.0,0.6859999999999999,2.136,12-06-2020,14:44:32,0
57e9346673e67300012b9173,23,female,1,1,20,Clear_not_profit_side,low_enforcement,10,0,0,right,12,18,1000,1.45,left,left,0.0,10.0,1,0.23600000000000002,26,48,155.0,686.0,0.6859999999999999,2.136,12-06-2020,14:44:32,0
57e9346673e67300012b9173,23,female,1,1,21,Ambigous_left,low_enforcement,10,0,0,right,14,16,1000,1.45,left,right,10.0,0.0,0,0.21899999999999997,26,48,155.0,686.0,0.6859999999999999,2.136,12-06-2020,14:44:32,1
57e9346673e67300012b9173,23,female,1,1,23,Clear_not_profit_side,low_enforcement,10,0,0,right,12,18,1000,1.45,left,left,0.0,10.0,1,0.231,26,48,155.0,686.0,0.6859999999999999,2.136,12-06-2020,14:44:32,0
57e9346673e67300012b9173,23,female,1,1,24,Ambigous_left,low_enforcement,10,0,0,right,14,16,1000,1.45,left,right,10.0,0.0,0,0.20600000000000002,26,48,155.0,686.0,0.6859999999999999,2.136,12-06-2020,14:44:32,1
57e9346673e67300012b9173,23,female,1,1,25,Clear_not_profit_side,low_enforcement,10,1,99,right,12,18,1000,1.45,left,left,0.0,-89.0,1,0.242,26,48,155.0,686.0,0.6859999999999999,2.136,12-06-2020,14:44:32,0
57e9346673e67300012b9173,23,female,1,1,29,Ambigous_left,low_enforcement,10,1,99,right,14,16,1000,1.45,left,left,0.0,-89.0,1,0.209,26,48,155.0,686.0,0.6859999999999999,2.136,12-06-2020,14:44:32,0
57e9346673e67300012b9173,23,female,1,1,30,Ambigous_left,low_enforcement,10,0,0,right,14,16,1000,1.45,left,right,10.0,0.0,0,0.223,26,48,155.0,686.0,0.6859999999999999,2.136,12-06-2020,14:44:32,1
57e9346673e67300012b9173,23,female,1,1,36,Clear_not_profit_side,low_enforcement,10,0,0,right,12,18,1000,1.45,left,right,10.0,0.0,0,0.215,26,48,155.0,686.0,0.6859999999999999,2.136,12-06-2020,14:44:32,1
57e9346673e67300012b9173,23,female,1,1,37,Clear_not_profit_side,low_enforcement,10,0,0,right,12,18,1000,1.45,left,left,0.0,10.0,1,0.21,26,48,155.0,686.0,0.6859999999999999,2.136,12-06-2020,14:44:32,0
57e9346673e67300012b9173,23,female,1,1,38,Clear_not_profit_side,low_enforcement,10,0,0,right,12,18,1000,1.45,left,left,0.0,10.0,1,0.205,26,48,155.0,686.0,0.6859999999999999,2.136,12-06-2020,14:44:32,0
57e9346673e67300012b9173,23,female,1,1,41,Ambigous_left,low_enforcement,10,0,0,right,14,16,1000,1.45,left,left,0.0,10.0,1,0.21899999999999997,26,48,155.0,686.0,0.6859999999999999,2.136,12-06-2020,14:44:32,0
57e9346673e67300012b9173,23,female,1,1,43,Ambigous_left,low_enforcement,10,0,0,right,14,16,1000,1.45,left,left,0.0,10.0,1,0.27399999999999997,26,48,155.0,686.0,0.6859999999999999,2.136,12-06-2020,14:44:32,0
57e9346673e67300012b9173,23,female,1,1,45,Clear_not_profit_side,low_enforcement,10,0,0,right,12,18,1000,1.45,left,right,10.0,0.0,0,0.278,26,48,155.0,686.0,0.6859999999999999,2.136,12-06-2020,14:44:32,1
57e9346673e67300012b9173,23,female,1,1,46,Ambigous_left,low_enforcement,10,0,0,right,14,16,1000,1.45,left,right,10.0,0.0,0,0.24100000000000002,26,48,155.0,686.0,0.6859999999999999,2.136,12-06-2020,14:44:32,1
57e9346673e67300012b9173,23,female,1,1,47,Ambigous_left,low_enforcement,10,0,0,right,14,16,1000,1.45,left,left,0.0,10.0,1,0.18899999999999997,26,48,155.0,686.0,0.6859999999999999,2.136,12-06-2020,14:44:32,0
57e9346673e67300012b9173,23,female,1,1,49,Clear_not_profit_side,low_enforcement,10,0,0,right,12,18,1000,1.45,left,left,0.0,10.0,1,0.228,26,48,155.0,686.0,0.6859999999999999,2.136,12-06-2020,14:44:32,0
57e9346673e67300012b9173,23,female,1,1,53,Clear_not_profit_side,low_enforcement,10,1,99,right,12,18,1000,1.45,left,right,-89.0,-99.0,0,0.643,26,48,155.0,686.0,0.6859999999999999,2.136,12-06-2020,14:44:32,1
57e9346673e67300012b9173,23,female,1,1,54,Clear_not_profit_side,low_enforcement,10,0,0,right,12,18,1000,1.45,left,left,0.0,10.0,1,0.209,26,48,155.0,686.0,0.6859999999999999,2.136,12-06-2020,14:44:32,0
57e9346673e67300012b9173,23,female,1,1,60,Ambigous_left,low_enforcement,10,0,0,right,14,16,1000,1.45,left,right,10.0,0.0,0,0.175,26,48,155.0,686.0,0.6859999999999999,2.136,12-06-2020,14:44:32,1
57e9346673e67300012b9173,23,female,1,1,64,Clear_not_profit_side,low_enforcement,10,0,0,right,12,18,1000,1.45,left,right,10.0,0.0,0,0.3,26,48,155.0,686.0,0.6859999999999999,2.136,12-06-2020,14:44:32,1
57e9346673e67300012b9173,23,female,1,1,67,Clear_not_profit_side,low_enforcement,10,0,0,right,12,18,1000,1.45,left,left,0.0,10.0,1,0.23199999999999998,26,48,155.0,686.0,0.6859999999999999,2.136,12-06-2020,14:44:32,0
57e9346673e67300012b9173,23,female,1,1,68,Ambigous_left,low_enforcement,10,0,0,right,14,16,1000,1.45,left,right,10.0,0.0,0,0.233,26,48,155.0,686.0,0.6859999999999999,2.136,12-06-2020,14:44:32,1
57e9346673e67300012b9173,23,female,1,1,69,Ambigous_left,low_enforcement,10,0,0,right,14,16,1000,1.45,left,left,0.0,10.0,1,0.297,26,48,155.0,686.0,0.6859999999999999,2.136,12-06-2020,14:44:32,0
57e9346673e67300012b9173,23,female,1,1,70,Clear_not_profit_side,low_enforcement,10,0,0,right,12,18,1000,1.45,left,left,0.0,10.0,1,0.184,26,48,155.0,686.0,0.6859999999999999,2.136,12-06-2020,14:44:32,0
57e9346673e67300012b9173,23,female,1,1,71,Ambigous_left,low_enforcement,10,0,0,right,14,16,1000,1.45,left,left,0.0,10.0,1,0.19899999999999998,26,48,155.0,686.0,0.6859999999999999,2.136,12-06-2020,14:44:32,0
57e9346673e67300012b9173,23,female,1,1,72,Ambigous_left,low_enforcement,10,0,0,right,14,16,1000,1.45,left,right,10.0,0.0,0,0.15,26,48,155.0,686.0,0.6859999999999999,2.136,12-06-2020,14:44:32,1
57e9346673e67300012b9173,23,female,1,1,73,Clear_not_profit_side,low_enforcement,10,0,0,right,12,18,1000,1.45,left,right,10.0,0.0,0,0.264,26,48,155.0,686.0,0.6859999999999999,2.136,12-06-2020,14:44:32,1
57e9346673e67300012b9173,23,female,1,1,74,Clear_not_profit_side,low_enforcement,10,0,0,right,12,18,1000,1.45,left,left,0.0,10.0,1,0.228,26,48,155.0,686.0,0.6859999999999999,2.136,12-06-2020,14:44:32,0
57e9346673e67300012b9173,23,female,1,1,75,Clear_not_profit_side,low_enforcement,10,0,0,right,12,18,1000,1.45,left,left,0.0,10.0,1,0.231,26,48,155.0,686.0,0.6859999999999999,2.136,12-06-2020,14:44:32,0
57e9346673e67300012b9173,23,female,1,1,76,Clear_not_profit_side,low_enforcement,10,0,0,right,12,18,1000,1.45,left,right,10.0,0.0,0,0.298,26,48,155.0,686.0,0.6859999999999999,2.136,12-06-2020,14:44:32,1
57e9346673e67300012b9173,23,female,1,1,77,Ambigous_left,low_enforcement,10,0,0,right,14,16,1000,1.45,left,right,10.0,0.0,0,0.19899999999999998,26,48,155.0,686.0,0.6859999999999999,2.136,12-06-2020,14:44:32,1
57e9346673e67300012b9173,23,female,1,1,78,Clear_not_profit_side,low_enforcement,10,0,0,right,12,18,1000,1.45,left,left,0.0,10.0,1,0.23,26,48,155.0,686.0,0.6859999999999999,2.136,12-06-2020,14:44:32,0
57e9346673e67300012b9173,23,female,1,1,80,Clear_not_profit_side,low_enforcement,10,1,99,right,12,18,1000,1.45,left,right,-89.0,-99.0,0,0.21100000000000002,26,48,155.0,686.0,0.6859999999999999,2.136,12-06-2020,14:44:32,1
57e9346673e67300012b9173,23,female,1,1,81,Ambigous_left,low_enforcement,10,0,0,right,14,16,1000,1.45,left,right,10.0,0.0,0,0.26,26,48,155.0,686.0,0.6859999999999999,2.136,12-06-2020,14:44:32,1
57e9346673e67300012b9173,23,female,1,1,84,Clear_not_profit_side,low_enforcement,10,0,0,right,12,18,1000,1.45,left,left,0.0,10.0,1,0.162,26,48,155.0,686.0,0.6859999999999999,2.136,12-06-2020,14:44:32,0
57e9346673e67300012b9173,23,female,1,1,87,Clear_not_profit_side,low_enforcement,10,0,0,right,12,18,1000,1.45,left,left,0.0,10.0,1,0.163,26,48,155.0,686.0,0.6859999999999999,2.136,12-06-2020,14:44:32,0
57e9346673e67300012b9173,23,female,1,1,88,Clear_not_profit_side,low_enforcement,10,0,0,right,12,18,1000,1.45,left,left,0.0,10.0,1,0.17800000000000002,26,48,155.0,686.0,0.6859999999999999,2.136,12-06-2020,14:44:32,0
57e9346673e67300012b9173,23,female,1,1,89,Clear_not_profit_side,low_enforcement,10,0,0,right,12,18,1000,1.45,left,left,0.0,10.0,1,0.165,26,48,155.0,686.0,0.6859999999999999,2.136,12-06-2020,14:44:32,0
57e9346673e67300012b9173,23,female,1,1,90,Clear_not_profit_side,low_enforcement,10,0,0,right,12,18,1000,1.45,left,left,0.0,10.0,1,0.225,26,48,155.0,686.0,0.6859999999999999,2.136,12-06-2020,14:44:32,0
57e9346673e67300012b9173,23,female,1,1,92,Clear_not_profit_side,low_enforcement,10,1,99,right,12,18,1000,1.45,left,left,0.0,-89.0,1,0.134,26,48,155.0,686.0,0.6859999999999999,2.136,12-06-2020,14:44:32,0
57e9346673e67300012b9173,23,female,1,1,94,Clear_not_profit_side,low_enforcement,10,0,0,right,12,18,1000,1.45,left,left,0.0,10.0,1,0.21100000000000002,26,48,155.0,686.0,0.6859999999999999,2.136,12-06-2020,14:44:32,0
57e9346673e67300012b9173,23,female,1,1,95,Ambigous_left,low_enforcement,10,1,99,right,14,16,1000,1.45,left,right,-89.0,-99.0,0,0.139,26,48,155.0,686.0,0.6859999999999999,2.136,12-06-2020,14:44:32,1
57e9346673e67300012b9173,23,female,1,1,96,Clear_not_profit_side,low_enforcement,10,0,0,right,12,18,1000,1.45,left,left,0.0,10.0,1,0.163,26,48,155.0,686.0,0.6859999999999999,2.136,12-06-2020,14:44:32,0
57e9346673e67300012b9173,23,female,1,1,97,Ambigous_left,low_enforcement,10,1,99,right,14,16,1000,1.45,left,left,0.0,-89.0,1,0.20199999999999999,26,48,155.0,686.0,0.6859999999999999,2.136,12-06-2020,14:44:32,0
57e9346673e67300012b9173,23,female,1,1,98,Clear_not_profit_side,low_enforcement,10,0,0,right,12,18,1000,1.45,left,left,0.0,10.0,1,0.304,26,48,155.0,686.0,0.6859999999999999,2.136,12-06-2020,14:44:32,0
57e9346673e67300012b9173,23,female,1,1,100,Ambigous_left,low_enforcement,10,1,99,right,14,16,1000,1.45,left,right,-89.0,-99.0,0,0.168,26,48,155.0,686.0,0.6859999999999999,2.136,12-06-2020,14:44:32,1
57e9346673e67300012b9173,23,female,1,2,1,Ambigous_left,low_enforcement,10,0,0,right,14,16,1000,1.45,left,right,10.0,0.0,0,0.14,22,48,531.0,686.0,0.6859999999999999,2.136,12-06-2020,14:44:32,1
57e9346673e67300012b9173,23,female,1,2,3,Clear_not_profit_side,low_enforcement,10,0,0,right,12,18,1000,1.45,left,left,0.0,10.0,1,0.152,22,48,531.0,686.0,0.6859999999999999,2.136,12-06-2020,14:44:32,0
57e9346673e67300012b9173,23,female,1,2,4,Ambigous_left,low_enforcement,10,0,0,right,14,16,1000,1.45,left,right,10.0,0.0,0,0.138,22,48,531.0,686.0,0.6859999999999999,2.136,12-06-2020,14:44:32,1
57e9346673e67300012b9173,23,female,1,2,5,Clear_not_profit_side,low_enforcement,10,0,0,right,12,18,1000,1.45,left,right,10.0,0.0,0,0.319,22,48,531.0,686.0,0.6859999999999999,2.136,12-06-2020,14:44:32,1
57e9346673e67300012b9173,23,female,1,2,6,Ambigous_left,low_enforcement,10,0,0,right,14,16,1000,1.45,left,right,10.0,0.0,0,0.198,22,48,531.0,686.0,0.6859999999999999,2.136,12-06-2020,14:44:32,1
57e9346673e67300012b9173,23,female,1,2,8,Clear_not_profit_side,low_enforcement,10,0,0,right,12,18,1000,1.45,left,left,0.0,10.0,1,0.23800000000000002,22,48,531.0,686.0,0.6859999999999999,2.136,12-06-2020,14:44:32,0
57e9346673e67300012b9173,23,female,1,2,9,Clear_not_profit_side,low_enforcement,10,0,0,right,12,18,1000,1.45,left,left,0.0,10.0,1,0.22,22,48,531.0,686.0,0.6859999999999999,2.136,12-06-2020,14:44:32,0
57e9346673e67300012b9173,23,female,1,2,11,Ambigous_left,low_enforcement,10,0,0,right,14,16,1000,1.45,left,right,10.0,0.0,0,0.183,22,48,531.0,686.0,0.6859999999999999,2.136,12-06-2020,14:44:32,1
57e9346673e67300012b9173,23,female,1,2,12,Clear_not_profit_side,low_enforcement,10,0,0,right,12,18,1000,1.45,left,left,0.0,10.0,1,0.14800000000000002,22,48,531.0,686.0,0.6859999999999999,2.136,12-06-2020,14:44:32,0
57e9346673e67300012b9173,23,female,1,2,13,Ambigous_left,low_enforcement,10,0,0,right,14,16,1000,1.45,left,right,10.0,0.0,0,0.24100000000000002,22,48,531.0,686.0,0.6859999999999999,2.136,12-06-2020,14:44:32,1
57e9346673e67300012b9173,23,female,1,2,14,Clear_not_profit_side,low_enforcement,10,0,0,right,12,18,1000,1.45,left,left,0.0,10.0,1,0.14400000000000002,22,48,531.0,686.0,0.6859999999999999,2.136,12-06-2020,14:44:32,0
57e9346673e67300012b9173,23,female,1,2,15,Clear_not_profit_side,low_enforcement,10,1,99,right,12,18,1000,1.45,left,left,0.0,-89.0,1,0.16899999999999998,22,48,531.0,686.0,0.6859999999999999,2.136,12-06-2020,14:44:32,0
57e9346673e67300012b9173,23,female,1,2,16,Clear_not_profit_side,low_enforcement,10,0,0,right,12,18,1000,1.45,left,left,0.0,10.0,1,0.159,22,48,531.0,686.0,0.6859999999999999,2.136,12-06-2020,14:44:32,0
57e9346673e67300012b9173,23,female,1,2,18,Clear_not_profit_side,low_enforcement,10,0,0,right,12,18,1000,1.45,left,left,0.0,10.0,1,0.34600000000000003,22,48,531.0,686.0,0.6859999999999999,2.136,12-06-2020,14:44:32,0
57e9346673e67300012b9173,23,female,1,2,19,Ambigous_left,low_enforcement,10,0,0,right,14,16,1000,1.45,left,left,0.0,10.0,1,0.42100000000000004,22,48,531.0,686.0,0.6859999999999999,2.136,12-06-2020,14:44:32,0
57e9346673e67300012b9173,23,female,1,2,20,Clear_not_profit_side,low_enforcement,10,0,0,right,12,18,1000,1.45,left,left,0.0,10.0,1,0.22699999999999998,22,48,531.0,686.0,0.6859999999999999,2.136,12-06-2020,14:44:32,0
57e9346673e67300012b9173,23,female,1,2,24,Clear_not_profit_side,low_enforcement,10,0,0,right,12,18,1000,1.45,left,left,0.0,10.0,1,0.24100000000000002,22,48,531.0,686.0,0.6859999999999999,2.136,12-06-2020,14:44:32,0
57e9346673e67300012b9173,23,female,1,2,25,Clear_not_profit_side,low_enforcement,10,1,99,right,12,18,1000,1.45,left,left,0.0,-89.0,1,0.18899999999999997,22,48,531.0,686.0,0.6859999999999999,2.136,12-06-2020,14:44:32,0
57e9346673e67300012b9173,23,female,1,2,26,Clear_not_profit_side,low_enforcement,10,0,0,right,12,18,1000,1.45,left,right,10.0,0.0,0,0.5579999999999999,22,48,531.0,686.0,0.6859999999999999,2.136,12-06-2020,14:44:32,1
57e9346673e67300012b9173,23,female,1,2,27,Clear_not_profit_side,low_enforcement,10,0,0,right,12,18,1000,1.45,left,left,0.0,10.0,1,0.177,22,48,531.0,686.0,0.6859999999999999,2.136,12-06-2020,14:44:32,0
57e9346673e67300012b9173,23,female,1,2,28,Clear_not_profit_side,low_enforcement,10,0,0,right,12,18,1000,1.45,left,left,0.0,10.0,1,0.355,22,48,531.0,686.0,0.6859999999999999,2.136,12-06-2020,14:44:32,0
57e9346673e67300012b9173,23,female,1,2,30,Clear_not_profit_side,low_enforcement,10,0,0,right,12,18,1000,1.45,left,right,10.0,0.0,0,0.524,22,48,531.0,686.0,0.6859999999999999,2.136,12-06-2020,14:44:32,1
57e9346673e67300012b9173,23,female,1,2,31,Clear_not_profit_side,low_enforcement,10,0,0,right,12,18,1000,1.45,left,left,0.0,10.0,1,0.145,22,48,531.0,686.0,0.6859999999999999,2.136,12-06-2020,14:44:32,0
57e9346673e67300012b9173,23,female,1,2,32,Ambigous_left,low_enforcement,10,0,0,right,14,16,1000,1.45,left,left,0.0,10.0,1,0.33299999999999996,22,48,531.0,686.0,0.6859999999999999,2.136,12-06-2020,14:44:32,0
57e9346673e67300012b9173,23,female,1,2,35,Ambigous_left,low_enforcement,10,0,0,right,14,16,1000,1.45,left,right,10.0,0.0,0,0.132,22,48,531.0,686.0,0.6859999999999999,2.136,12-06-2020,14:44:32,1
57e9346673e67300012b9173,23,female,1,2,36,Clear_not_profit_side,low_enforcement,10,0,0,right,12,18,1000,1.45,left,left,0.0,10.0,1,0.139,22,48,531.0,686.0,0.6859999999999999,2.136,12-06-2020,14:44:32,0
57e9346673e67300012b9173,23,female,1,2,38,Clear_not_profit_side,low_enforcement,10,0,0,right,12,18,1000,1.45,left,left,0.0,10.0,1,0.185,22,48,531.0,686.0,0.6859999999999999,2.136,12-06-2020,14:44:32,0
57e9346673e67300012b9173,23,female,1,2,42,Ambigous_left,low_enforcement,10,0,0,right,14,16,1000,1.45,left,right,10.0,0.0,0,0.151,22,48,531.0,686.0,0.6859999999999999,2.136,12-06-2020,14:44:32,1
57e9346673e67300012b9173,23,female,1,2,44,Clear_not_profit_side,low_enforcement,10,0,0,right,12,18,1000,1.45,left,left,0.0,10.0,1,0.159,22,48,531.0,686.0,0.6859999999999999,2.136,12-06-2020,14:44:32,0
57e9346673e67300012b9173,23,female,1,2,45,Ambigous_left,low_enforcement,10,0,0,right,14,16,1000,1.45,left,left,0.0,10.0,1,0.222,22,48,531.0,686.0,0.6859999999999999,2.136,12-06-2020,14:44:32,0
57e9346673e67300012b9173,23,female,1,2,46,Clear_not_profit_side,low_enforcement,10,0,0,right,12,18,1000,1.45,left,left,0.0,10.0,1,0.192,22,48,531.0,686.0,0.6859999999999999,2.136,12-06-2020,14:44:32,0
57e9346673e67300012b9173,23,female,1,2,52,Clear_not_profit_side,low_enforcement,10,0,0,right,12,18,1000,1.45,left,left,0.0,10.0,1,0.177,22,48,531.0,686.0,0.6859999999999999,2.136,12-06-2020,14:44:32,0
57e9346673e67300012b9173,23,female,1,2,53,Clear_not_profit_side,low_enforcement,10,0,0,right,12,18,1000,1.45,left,left,0.0,10.0,1,0.257,22,48,531.0,686.0,0.6859999999999999,2.136,12-06-2020,14:44:32,0
57e9346673e67300012b9173,23,female,1,2,55,Clear_not_profit_side,low_enforcement,10,0,0,right,12,18,1000,1.45,left,left,0.0,10.0,1,0.147,22,48,531.0,686.0,0.6859999999999999,2.136,12-06-2020,14:44:32,0
57e9346673e67300012b9173,23,female,1,2,57,Ambigous_left,low_enforcement,10,0,0,right,14,16,1000,1.45,left,right,10.0,0.0,0,0.16899999999999998,22,48,531.0,686.0,0.6859999999999999,2.136,12-06-2020,14:44:32,1
57e9346673e67300012b9173,23,female,1,2,59,Ambigous_left,low_enforcement,10,0,0,right,14,16,1000,1.45,left,left,0.0,10.0,1,0.19899999999999998,22,48,531.0,686.0,0.6859999999999999,2.136,12-06-2020,14:44:32,0
57e9346673e67300012b9173,23,female,1,2,61,Ambigous_left,low_enforcement,10,0,0,right,14,16,1000,1.45,left,left,0.0,10.0,1,0.204,22,48,531.0,686.0,0.6859999999999999,2.136,12-06-2020,14:44:32,0
57e9346673e67300012b9173,23,female,1,2,64,Clear_not_profit_side,low_enforcement,10,0,0,right,12,18,1000,1.45,left,left,0.0,10.0,1,0.13,22,48,531.0,686.0,0.6859999999999999,2.136,12-06-2020,14:44:32,0
57e9346673e67300012b9173,23,female,1,2,65,Ambigous_left,low_enforcement,10,0,0,right,14,16,1000,1.45,left,left,0.0,10.0,1,0.322,22,48,531.0,686.0,0.6859999999999999,2.136,12-06-2020,14:44:32,0
57e9346673e67300012b9173,23,female,1,2,66,Ambigous_left,low_enforcement,10,0,0,right,14,16,1000,1.45,left,left,0.0,10.0,1,0.133,22,48,531.0,686.0,0.6859999999999999,2.136,12-06-2020,14:44:32,0
57e9346673e67300012b9173,23,female,1,2,69,Ambigous_left,low_enforcement,10,1,99,right,14,16,1000,1.45,left,right,-89.0,-99.0,0,0.188,22,48,531.0,686.0,0.6859999999999999,2.136,12-06-2020,14:44:32,1
57e9346673e67300012b9173,23,female,1,2,70,Clear_not_profit_side,low_enforcement,10,0,0,right,12,18,1000,1.45,left,left,0.0,10.0,1,0.248,22,48,531.0,686.0,0.6859999999999999,2.136,12-06-2020,14:44:32,0
57e9346673e67300012b9173,23,female,1,2,71,Ambigous_left,low_enforcement,10,0,0,right,14,16,1000,1.45,left,right,10.0,0.0,0,0.18100000000000002,22,48,531.0,686.0,0.6859999999999999,2.136,12-06-2020,14:44:32,1
57e9346673e67300012b9173,23,female,1,2,74,Ambigous_left,low_enforcement,10,0,0,right,14,16,1000,1.45,left,right,10.0,0.0,0,0.151,22,48,531.0,686.0,0.6859999999999999,2.136,12-06-2020,14:44:32,1
57e9346673e67300012b9173,23,female,1,2,75,Clear_not_profit_side,low_enforcement,10,0,0,right,12,18,1000,1.45,left,right,10.0,0.0,0,0.27,22,48,531.0,686.0,0.6859999999999999,2.136,12-06-2020,14:44:32,1
57e9346673e67300012b9173,23,female,1,2,76,Ambigous_left,low_enforcement,10,0,0,right,14,16,1000,1.45,left,right,10.0,0.0,0,0.133,22,48,531.0,686.0,0.6859999999999999,2.136,12-06-2020,14:44:32,1
57e9346673e67300012b9173,23,female,1,2,78,Clear_not_profit_side,low_enforcement,10,0,0,right,12,18,1000,1.45,left,left,0.0,10.0,1,0.22899999999999998,22,48,531.0,686.0,0.6859999999999999,2.136,12-06-2020,14:44:32,0
57e9346673e67300012b9173,23,female,1,2,80,Clear_not_profit_side,low_enforcement,10,0,0,right,12,18,1000,1.45,left,left,0.0,10.0,1,0.34299999999999997,22,48,531.0,686.0,0.6859999999999999,2.136,12-06-2020,14:44:32,0
57e9346673e67300012b9173,23,female,1,2,82,Ambigous_left,low_enforcement,10,0,0,right,14,16,1000,1.45,left,right,10.0,0.0,0,0.139,22,48,531.0,686.0,0.6859999999999999,2.136,12-06-2020,14:44:32,1
57e9346673e67300012b9173,23,female,1,2,83,Clear_not_profit_side,low_enforcement,10,0,0,right,12,18,1000,1.45,left,left,0.0,10.0,1,0.159,22,48,531.0,686.0,0.6859999999999999,2.136,12-06-2020,14:44:32,0
57e9346673e67300012b9173,23,female,1,2,84,Clear_not_profit_side,low_enforcement,10,0,0,right,12,18,1000,1.45,left,left,0.0,10.0,1,0.174,22,48,531.0,686.0,0.6859999999999999,2.136,12-06-2020,14:44:32,0
57e9346673e67300012b9173,23,female,1,2,86,Ambigous_left,low_enforcement,10,0,0,right,14,16,1000,1.45,left,right,10.0,0.0,0,0.168,22,48,531.0,686.0,0.6859999999999999,2.136,12-06-2020,14:44:32,1
57e9346673e67300012b9173,23,female,1,2,89,Ambigous_left,low_enforcement,10,0,0,right,14,16,1000,1.45,left,right,10.0,0.0,0,0.145,22,48,531.0,686.0,0.6859999999999999,2.136,12-06-2020,14:44:32,1
57e9346673e67300012b9173,23,female,1,2,91,Ambigous_left,low_enforcement,10,0,0,right,14,16,1000,1.45,left,right,10.0,0.0,0,0.247,22,48,531.0,686.0,0.6859999999999999,2.136,12-06-2020,14:44:32,1
57e9346673e67300012b9173,23,female,1,2,93,Clear_not_profit_side,low_enforcement,10,0,0,right,12,18,1000,1.45,left,right,10.0,0.0,0,0.165,22,48,531.0,686.0,0.6859999999999999,2.136,12-06-2020,14:44:32,1
57e9346673e67300012b9173,23,female,1,2,94,Ambigous_left,low_enforcement,10,0,0,right,14,16,1000,1.45,left,left,0.0,10.0,1,0.145,22,48,531.0,686.0,0.6859999999999999,2.136,12-06-2020,14:44:32,0
57e9346673e67300012b9173,23,female,1,2,95,Clear_not_profit_side,low_enforcement,10,0,0,right,12,18,1000,1.45,left,left,0.0,10.0,1,0.303,22,48,531.0,686.0,0.6859999999999999,2.136,12-06-2020,14:44:32,0
57e9346673e67300012b9173,23,female,1,2,97,Clear_not_profit_side,low_enforcement,10,0,0,right,12,18,1000,1.45,left,left,0.0,10.0,1,0.161,22,48,531.0,686.0,0.6859999999999999,2.136,12-06-2020,14:44:32,0
57e9346673e67300012b9173,23,female,1,2,100,Ambigous_left,low_enforcement,10,0,0,right,14,16,1000,1.45,left,right,10.0,0.0,0,0.138,22,48,531.0,686.0,0.6859999999999999,2.136,12-06-2020,14:44:32,1
57efc1de61e8340001876cf0,24,female,1,1,2,Ambigous_right,low_enforcement,10,1,99,left,16,14,1000,1.45,right,right,0.0,-89.0,1,0.446,16,29,-163.0,139.0,0.139,1.589,12-06-2020,14:41:48,0
57efc1de61e8340001876cf0,24,female,1,1,3,Ambigous_right,low_enforcement,10,0,0,left,16,14,1000,1.45,right,right,0.0,10.0,1,0.177,16,29,-163.0,139.0,0.139,1.589,12-06-2020,14:41:48,0
57efc1de61e8340001876cf0,24,female,1,1,4,Clear_not_profit_side,low_enforcement,10,1,99,left,18,12,1000,1.45,right,right,0.0,-89.0,1,0.213,16,29,-163.0,139.0,0.139,1.589,12-06-2020,14:41:48,0
57efc1de61e8340001876cf0,24,female,1,1,5,Ambigous_right,low_enforcement,10,0,0,left,16,14,1000,1.45,right,left,10.0,0.0,0,0.27699999999999997,16,29,-163.0,139.0,0.139,1.589,12-06-2020,14:41:48,1
57efc1de61e8340001876cf0,24,female,1,1,6,Clear_not_profit_side,low_enforcement,10,0,0,left,18,12,1000,1.45,right,right,0.0,10.0,1,0.175,16,29,-163.0,139.0,0.139,1.589,12-06-2020,14:41:48,0
57efc1de61e8340001876cf0,24,female,1,1,7,Clear_not_profit_side,low_enforcement,10,0,0,left,18,12,1000,1.45,right,right,0.0,10.0,1,0.175,16,29,-163.0,139.0,0.139,1.589,12-06-2020,14:41:48,0
57efc1de61e8340001876cf0,24,female,1,1,8,Clear_not_profit_side,low_enforcement,10,0,0,left,18,12,1000,1.45,right,right,0.0,10.0,1,0.204,16,29,-163.0,139.0,0.139,1.589,12-06-2020,14:41:48,0
57efc1de61e8340001876cf0,24,female,1,1,9,Clear_not_profit_side,low_enforcement,10,0,0,left,18,12,1000,1.45,right,right,0.0,10.0,1,0.21100000000000002,16,29,-163.0,139.0,0.139,1.589,12-06-2020,14:41:48,0
57efc1de61e8340001876cf0,24,female,1,1,10,Ambigous_right,low_enforcement,10,0,0,left,16,14,1000,1.45,right,right,0.0,10.0,1,0.168,16,29,-163.0,139.0,0.139,1.589,12-06-2020,14:41:48,0
57efc1de61e8340001876cf0,24,female,1,1,12,Ambigous_right,low_enforcement,10,0,0,left,16,14,1000,1.45,right,right,0.0,10.0,1,0.141,16,29,-163.0,139.0,0.139,1.589,12-06-2020,14:41:48,0
57efc1de61e8340001876cf0,24,female,1,1,13,Clear_not_profit_side,low_enforcement,10,1,99,left,18,12,1000,1.45,right,left,-89.0,-99.0,0,0.233,16,29,-163.0,139.0,0.139,1.589,12-06-2020,14:41:48,1
57efc1de61e8340001876cf0,24,female,1,1,15,Ambigous_right,low_enforcement,10,0,0,left,16,14,1000,1.45,right,left,10.0,0.0,0,0.19399999999999998,16,29,-163.0,139.0,0.139,1.589,12-06-2020,14:41:48,1
57efc1de61e8340001876cf0,24,female,1,1,16,Clear_not_profit_side,low_enforcement,10,0,0,left,18,12,1000,1.45,right,right,0.0,10.0,1,0.177,16,29,-163.0,139.0,0.139,1.589,12-06-2020,14:41:48,0
57efc1de61e8340001876cf0,24,female,1,1,18,Ambigous_right,low_enforcement,10,0,0,left,16,14,1000,1.45,right,right,0.0,10.0,1,0.165,16,29,-163.0,139.0,0.139,1.589,12-06-2020,14:41:48,0
57efc1de61e8340001876cf0,24,female,1,1,19,Clear_not_profit_side,low_enforcement,10,1,99,left,18,12,1000,1.45,right,right,0.0,-89.0,1,0.151,16,29,-163.0,139.0,0.139,1.589,12-06-2020,14:41:48,0
57efc1de61e8340001876cf0,24,female,1,1,20,Ambigous_right,low_enforcement,10,1,99,left,16,14,1000,1.45,right,left,-89.0,-99.0,0,0.141,16,29,-163.0,139.0,0.139,1.589,12-06-2020,14:41:48,1
57efc1de61e8340001876cf0,24,female,1,1,21,Ambigous_right,low_enforcement,10,1,99,left,16,14,1000,1.45,right,left,-89.0,-99.0,0,0.132,16,29,-163.0,139.0,0.139,1.589,12-06-2020,14:41:48,1
57efc1de61e8340001876cf0,24,female,1,1,22,Clear_not_profit_side,low_enforcement,10,0,0,left,18,12,1000,1.45,right,left,10.0,0.0,0,0.256,16,29,-163.0,139.0,0.139,1.589,12-06-2020,14:41:48,1
57efc1de61e8340001876cf0,24,female,1,1,27,Clear_not_profit_side,low_enforcement,10,0,0,left,18,12,1000,1.45,right,right,0.0,10.0,1,0.15,16,29,-163.0,139.0,0.139,1.589,12-06-2020,14:41:48,0
57efc1de61e8340001876cf0,24,female,1,1,29,Clear_not_profit_side,low_enforcement,10,0,0,left,18,12,1000,1.45,right,right,0.0,10.0,1,0.11800000000000001,16,29,-163.0,139.0,0.139,1.589,12-06-2020,14:41:48,0
57efc1de61e8340001876cf0,24,female,1,1,30,Ambigous_right,low_enforcement,10,1,99,left,16,14,1000,1.45,right,right,0.0,-89.0,1,0.307,16,29,-163.0,139.0,0.139,1.589,12-06-2020,14:41:48,0
57efc1de61e8340001876cf0,24,female,1,1,31,Clear_not_profit_side,low_enforcement,10,0,0,left,18,12,1000,1.45,right,right,0.0,10.0,1,0.183,16,29,-163.0,139.0,0.139,1.589,12-06-2020,14:41:48,0
57efc1de61e8340001876cf0,24,female,1,1,34,Clear_not_profit_side,low_enforcement,10,0,0,left,18,12,1000,1.45,right,right,0.0,10.0,1,0.253,16,29,-163.0,139.0,0.139,1.589,12-06-2020,14:41:48,0
57efc1de61e8340001876cf0,24,female,1,1,35,Clear_not_profit_side,low_enforcement,10,0,0,left,18,12,1000,1.45,right,left,10.0,0.0,0,0.133,16,29,-163.0,139.0,0.139,1.589,12-06-2020,14:41:48,1
57efc1de61e8340001876cf0,24,female,1,1,36,Clear_not_profit_side,low_enforcement,10,0,0,left,18,12,1000,1.45,right,right,0.0,10.0,1,0.158,16,29,-163.0,139.0,0.139,1.589,12-06-2020,14:41:48,0
57efc1de61e8340001876cf0,24,female,1,1,37,Clear_not_profit_side,low_enforcement,10,0,0,left,18,12,1000,1.45,right,right,0.0,10.0,1,0.135,16,29,-163.0,139.0,0.139,1.589,12-06-2020,14:41:48,0
57efc1de61e8340001876cf0,24,female,1,1,38,Ambigous_right,low_enforcement,10,0,0,left,16,14,1000,1.45,right,right,0.0,10.0,1,0.152,16,29,-163.0,139.0,0.139,1.589,12-06-2020,14:41:48,0
57efc1de61e8340001876cf0,24,female,1,1,39,Clear_not_profit_side,low_enforcement,10,1,99,left,18,12,1000,1.45,right,right,0.0,-89.0,1,0.156,16,29,-163.0,139.0,0.139,1.589,12-06-2020,14:41:48,0
57efc1de61e8340001876cf0,24,female,1,1,41,Clear_not_profit_side,low_enforcement,10,0,0,left,18,12,1000,1.45,right,right,0.0,10.0,1,0.161,16,29,-163.0,139.0,0.139,1.589,12-06-2020,14:41:48,0
57efc1de61e8340001876cf0,24,female,1,1,45,Ambigous_right,low_enforcement,10,0,0,left,16,14,1000,1.45,right,right,0.0,10.0,1,0.32299999999999995,16,29,-163.0,139.0,0.139,1.589,12-06-2020,14:41:48,0
57efc1de61e8340001876cf0,24,female,1,1,47,Clear_not_profit_side,low_enforcement,10,1,99,left,18,12,1000,1.45,right,right,0.0,-89.0,1,0.146,16,29,-163.0,139.0,0.139,1.589,12-06-2020,14:41:48,0
57efc1de61e8340001876cf0,24,female,1,1,48,Ambigous_right,low_enforcement,10,0,0,left,16,14,1000,1.45,right,right,0.0,10.0,1,0.36,16,29,-163.0,139.0,0.139,1.589,12-06-2020,14:41:48,0
57efc1de61e8340001876cf0,24,female,1,1,50,Clear_not_profit_side,low_enforcement,10,0,0,left,18,12,1000,1.45,right,right,0.0,10.0,1,0.139,16,29,-163.0,139.0,0.139,1.589,12-06-2020,14:41:48,0
57efc1de61e8340001876cf0,24,female,1,1,51,Clear_not_profit_side,low_enforcement,10,0,0,left,18,12,1000,1.45,right,right,0.0,10.0,1,0.14,16,29,-163.0,139.0,0.139,1.589,12-06-2020,14:41:48,0
57efc1de61e8340001876cf0,24,female,1,1,52,Ambigous_right,low_enforcement,10,0,0,left,16,14,1000,1.45,right,right,0.0,10.0,1,0.16699999999999998,16,29,-163.0,139.0,0.139,1.589,12-06-2020,14:41:48,0
57efc1de61e8340001876cf0,24,female,1,1,54,Ambigous_right,low_enforcement,10,0,0,left,16,14,1000,1.45,right,left,10.0,0.0,0,0.349,16,29,-163.0,139.0,0.139,1.589,12-06-2020,14:41:48,1
57efc1de61e8340001876cf0,24,female,1,1,55,Ambigous_right,low_enforcement,10,0,0,left,16,14,1000,1.45,right,right,0.0,10.0,1,0.377,16,29,-163.0,139.0,0.139,1.589,12-06-2020,14:41:48,0
57efc1de61e8340001876cf0,24,female,1,1,56,Clear_not_profit_side,low_enforcement,10,0,0,left,18,12,1000,1.45,right,right,0.0,10.0,1,0.198,16,29,-163.0,139.0,0.139,1.589,12-06-2020,14:41:48,0
57efc1de61e8340001876cf0,24,female,1,1,58,Clear_not_profit_side,low_enforcement,10,1,99,left,18,12,1000,1.45,right,right,0.0,-89.0,1,0.146,16,29,-163.0,139.0,0.139,1.589,12-06-2020,14:41:48,0
57efc1de61e8340001876cf0,24,female,1,1,62,Ambigous_right,low_enforcement,10,1,99,left,16,14,1000,1.45,right,right,0.0,-89.0,1,0.152,16,29,-163.0,139.0,0.139,1.589,12-06-2020,14:41:48,0
57efc1de61e8340001876cf0,24,female,1,1,63,Ambigous_right,low_enforcement,10,1,99,left,16,14,1000,1.45,right,left,-89.0,-99.0,0,0.205,16,29,-163.0,139.0,0.139,1.589,12-06-2020,14:41:48,1
57efc1de61e8340001876cf0,24,female,1,1,65,Ambigous_right,low_enforcement,10,0,0,left,16,14,1000,1.45,right,right,0.0,10.0,1,0.129,16,29,-163.0,139.0,0.139,1.589,12-06-2020,14:41:48,0
57efc1de61e8340001876cf0,24,female,1,1,67,Clear_not_profit_side,low_enforcement,10,0,0,left,18,12,1000,1.45,right,right,0.0,10.0,1,0.212,16,29,-163.0,139.0,0.139,1.589,12-06-2020,14:41:48,0
57efc1de61e8340001876cf0,24,female,1,1,69,Ambigous_right,low_enforcement,10,0,0,left,16,14,1000,1.45,right,left,10.0,0.0,0,0.139,16,29,-163.0,139.0,0.139,1.589,12-06-2020,14:41:48,1
57efc1de61e8340001876cf0,24,female,1,1,71,Clear_not_profit_side,low_enforcement,10,0,0,left,18,12,1000,1.45,right,right,0.0,10.0,1,0.071,16,29,-163.0,139.0,0.139,1.589,12-06-2020,14:41:48,0
57efc1de61e8340001876cf0,24,female,1,1,72,Clear_not_profit_side,low_enforcement,10,0,0,left,18,12,1000,1.45,right,right,0.0,10.0,1,0.124,16,29,-163.0,139.0,0.139,1.589,12-06-2020,14:41:48,0
57efc1de61e8340001876cf0,24,female,1,1,74,Clear_not_profit_side,low_enforcement,10,0,0,left,18,12,1000,1.45,right,right,0.0,10.0,1,0.115,16,29,-163.0,139.0,0.139,1.589,12-06-2020,14:41:48,0
57efc1de61e8340001876cf0,24,female,1,1,77,Clear_not_profit_side,low_enforcement,10,0,0,left,18,12,1000,1.45,right,right,0.0,10.0,1,0.128,16,29,-163.0,139.0,0.139,1.589,12-06-2020,14:41:48,0
57efc1de61e8340001876cf0,24,female,1,1,78,Ambigous_right,low_enforcement,10,0,0,left,16,14,1000,1.45,right,left,10.0,0.0,0,0.11199999999999999,16,29,-163.0,139.0,0.139,1.589,12-06-2020,14:41:48,1
57efc1de61e8340001876cf0,24,female,1,1,80,Clear_not_profit_side,low_enforcement,10,0,0,left,18,12,1000,1.45,right,right,0.0,10.0,1,0.11599999999999999,16,29,-163.0,139.0,0.139,1.589,12-06-2020,14:41:48,0
57efc1de61e8340001876cf0,24,female,1,1,83,Clear_not_profit_side,low_enforcement,10,0,0,left,18,12,1000,1.45,right,right,0.0,10.0,1,0.105,16,29,-163.0,139.0,0.139,1.589,12-06-2020,14:41:48,0
57efc1de61e8340001876cf0,24,female,1,1,84,Clear_not_profit_side,low_enforcement,10,0,0,left,18,12,1000,1.45,right,right,0.0,10.0,1,0.114,16,29,-163.0,139.0,0.139,1.589,12-06-2020,14:41:48,0
57efc1de61e8340001876cf0,24,female,1,1,85,Ambigous_right,low_enforcement,10,0,0,left,16,14,1000,1.45,right,left,10.0,0.0,0,0.185,16,29,-163.0,139.0,0.139,1.589,12-06-2020,14:41:48,1
57efc1de61e8340001876cf0,24,female,1,1,87,Clear_not_profit_side,low_enforcement,10,0,0,left,18,12,1000,1.45,right,right,0.0,10.0,1,0.10400000000000001,16,29,-163.0,139.0,0.139,1.589,12-06-2020,14:41:48,0
57efc1de61e8340001876cf0,24,female,1,1,90,Ambigous_right,low_enforcement,10,0,0,left,16,14,1000,1.45,right,right,0.0,10.0,1,0.18100000000000002,16,29,-163.0,139.0,0.139,1.589,12-06-2020,14:41:48,0
57efc1de61e8340001876cf0,24,female,1,1,91,Ambigous_right,low_enforcement,10,1,99,left,16,14,1000,1.45,right,left,-89.0,-99.0,0,0.248,16,29,-163.0,139.0,0.139,1.589,12-06-2020,14:41:48,1
57efc1de61e8340001876cf0,24,female,1,1,94,Clear_not_profit_side,low_enforcement,10,0,0,left,18,12,1000,1.45,right,right,0.0,10.0,1,0.125,16,29,-163.0,139.0,0.139,1.589,12-06-2020,14:41:48,0
57efc1de61e8340001876cf0,24,female,1,1,95,Clear_not_profit_side,low_enforcement,10,0,0,left,18,12,1000,1.45,right,right,0.0,10.0,1,0.16899999999999998,16,29,-163.0,139.0,0.139,1.589,12-06-2020,14:41:48,0
57efc1de61e8340001876cf0,24,female,1,1,99,Ambigous_right,low_enforcement,10,1,99,left,16,14,1000,1.45,right,left,-89.0,-99.0,0,0.161,16,29,-163.0,139.0,0.139,1.589,12-06-2020,14:41:48,1
57efc1de61e8340001876cf0,24,female,1,2,3,Clear_not_profit_side,low_enforcement,10,0,0,left,18,12,1000,1.45,right,right,0.0,10.0,1,0.11599999999999999,13,29,302.0,139.0,0.139,1.589,12-06-2020,14:41:48,0
57efc1de61e8340001876cf0,24,female,1,2,5,Clear_not_profit_side,low_enforcement,10,1,99,left,18,12,1000,1.45,right,right,0.0,-89.0,1,0.09300000000000001,13,29,302.0,139.0,0.139,1.589,12-06-2020,14:41:48,0
57efc1de61e8340001876cf0,24,female,1,2,6,Clear_not_profit_side,low_enforcement,10,0,0,left,18,12,1000,1.45,right,right,0.0,10.0,1,0.064,13,29,302.0,139.0,0.139,1.589,12-06-2020,14:41:48,0
57efc1de61e8340001876cf0,24,female,1,2,9,Ambigous_right,low_enforcement,10,0,0,left,16,14,1000,1.45,right,left,10.0,0.0,0,0.14400000000000002,13,29,302.0,139.0,0.139,1.589,12-06-2020,14:41:48,1
57efc1de61e8340001876cf0,24,female,1,2,10,Clear_not_profit_side,low_enforcement,10,0,0,left,18,12,1000,1.45,right,right,0.0,10.0,1,0.048,13,29,302.0,139.0,0.139,1.589,12-06-2020,14:41:48,0
57efc1de61e8340001876cf0,24,female,1,2,11,Ambigous_right,low_enforcement,10,0,0,left,16,14,1000,1.45,right,left,10.0,0.0,0,0.138,13,29,302.0,139.0,0.139,1.589,12-06-2020,14:41:48,1
57efc1de61e8340001876cf0,24,female,1,2,13,Clear_not_profit_side,low_enforcement,10,0,0,left,18,12,1000,1.45,right,right,0.0,10.0,1,0.07,13,29,302.0,139.0,0.139,1.589,12-06-2020,14:41:48,0
57efc1de61e8340001876cf0,24,female,1,2,15,Ambigous_right,low_enforcement,10,0,0,left,16,14,1000,1.45,right,right,0.0,10.0,1,0.14800000000000002,13,29,302.0,139.0,0.139,1.589,12-06-2020,14:41:48,0
57efc1de61e8340001876cf0,24,female,1,2,16,Ambigous_right,low_enforcement,10,0,0,left,16,14,1000,1.45,right,right,0.0,10.0,1,0.11,13,29,302.0,139.0,0.139,1.589,12-06-2020,14:41:48,0
57efc1de61e8340001876cf0,24,female,1,2,18,Ambigous_right,low_enforcement,10,0,0,left,16,14,1000,1.45,right,right,0.0,10.0,1,0.153,13,29,302.0,139.0,0.139,1.589,12-06-2020,14:41:48,0
57efc1de61e8340001876cf0,24,female,1,2,20,Clear_not_profit_side,low_enforcement,10,0,0,left,18,12,1000,1.45,right,right,0.0,10.0,1,0.043,13,29,302.0,139.0,0.139,1.589,12-06-2020,14:41:48,0
57efc1de61e8340001876cf0,24,female,1,2,23,Ambigous_right,low_enforcement,10,1,99,left,16,14,1000,1.45,right,right,0.0,-89.0,1,0.17,13,29,302.0,139.0,0.139,1.589,12-06-2020,14:41:48,0
57efc1de61e8340001876cf0,24,female,1,2,25,Clear_not_profit_side,low_enforcement,10,0,0,left,18,12,1000,1.45,right,right,0.0,10.0,1,0.146,13,29,302.0,139.0,0.139,1.589,12-06-2020,14:41:48,0
57efc1de61e8340001876cf0,24,female,1,2,27,Clear_not_profit_side,low_enforcement,10,0,0,left,18,12,1000,1.45,right,right,0.0,10.0,1,0.124,13,29,302.0,139.0,0.139,1.589,12-06-2020,14:41:48,0
57efc1de61e8340001876cf0,24,female,1,2,28,Clear_not_profit_side,low_enforcement,10,0,0,left,18,12,1000,1.45,right,right,0.0,10.0,1,0.057999999999999996,13,29,302.0,139.0,0.139,1.589,12-06-2020,14:41:48,0
57efc1de61e8340001876cf0,24,female,1,2,29,Clear_not_profit_side,low_enforcement,10,0,0,left,18,12,1000,1.45,right,right,0.0,10.0,1,0.179,13,29,302.0,139.0,0.139,1.589,12-06-2020,14:41:48,0
57efc1de61e8340001876cf0,24,female,1,2,31,Clear_not_profit_side,low_enforcement,10,0,0,left,18,12,1000,1.45,right,right,0.0,10.0,1,0.218,13,29,302.0,139.0,0.139,1.589,12-06-2020,14:41:48,0
57efc1de61e8340001876cf0,24,female,1,2,33,Clear_not_profit_side,low_enforcement,10,1,99,left,18,12,1000,1.45,right,right,0.0,-89.0,1,0.094,13,29,302.0,139.0,0.139,1.589,12-06-2020,14:41:48,0
57efc1de61e8340001876cf0,24,female,1,2,34,Ambigous_right,low_enforcement,10,0,0,left,16,14,1000,1.45,right,left,10.0,0.0,0,0.106,13,29,302.0,139.0,0.139,1.589,12-06-2020,14:41:48,1
57efc1de61e8340001876cf0,24,female,1,2,35,Clear_not_profit_side,low_enforcement,10,0,0,left,18,12,1000,1.45,right,right,0.0,10.0,1,0.098,13,29,302.0,139.0,0.139,1.589,12-06-2020,14:41:48,0
57efc1de61e8340001876cf0,24,female,1,2,37,Clear_not_profit_side,low_enforcement,10,0,0,left,18,12,1000,1.45,right,right,0.0,10.0,1,0.154,13,29,302.0,139.0,0.139,1.589,12-06-2020,14:41:48,0
57efc1de61e8340001876cf0,24,female,1,2,41,Ambigous_right,low_enforcement,10,0,0,left,16,14,1000,1.45,right,right,0.0,10.0,1,0.10800000000000001,13,29,302.0,139.0,0.139,1.589,12-06-2020,14:41:48,0
57efc1de61e8340001876cf0,24,female,1,2,42,Ambigous_right,low_enforcement,10,0,0,left,16,14,1000,1.45,right,left,10.0,0.0,0,0.28,13,29,302.0,139.0,0.139,1.589,12-06-2020,14:41:48,1
57efc1de61e8340001876cf0,24,female,1,2,43,Clear_not_profit_side,low_enforcement,10,0,0,left,18,12,1000,1.45,right,right,0.0,10.0,1,0.087,13,29,302.0,139.0,0.139,1.589,12-06-2020,14:41:48,0
57efc1de61e8340001876cf0,24,female,1,2,44,Ambigous_right,low_enforcement,10,1,99,left,16,14,1000,1.45,right,right,0.0,-89.0,1,0.107,13,29,302.0,139.0,0.139,1.589,12-06-2020,14:41:48,0
57efc1de61e8340001876cf0,24,female,1,2,45,Ambigous_right,low_enforcement,10,0,0,left,16,14,1000,1.45,right,right,0.0,10.0,1,0.109,13,29,302.0,139.0,0.139,1.589,12-06-2020,14:41:48,0
57efc1de61e8340001876cf0,24,female,1,2,46,Clear_not_profit_side,low_enforcement,10,0,0,left,18,12,1000,1.45,right,right,0.0,10.0,1,0.098,13,29,302.0,139.0,0.139,1.589,12-06-2020,14:41:48,0
57efc1de61e8340001876cf0,24,female,1,2,47,Ambigous_right,low_enforcement,10,0,0,left,16,14,1000,1.45,right,left,10.0,0.0,0,0.193,13,29,302.0,139.0,0.139,1.589,12-06-2020,14:41:48,1
57efc1de61e8340001876cf0,24,female,1,2,48,Ambigous_right,low_enforcement,10,0,0,left,16,14,1000,1.45,right,right,0.0,10.0,1,0.17,13,29,302.0,139.0,0.139,1.589,12-06-2020,14:41:48,0
57efc1de61e8340001876cf0,24,female,1,2,50,Clear_not_profit_side,low_enforcement,10,0,0,left,18,12,1000,1.45,right,right,0.0,10.0,1,0.098,13,29,302.0,139.0,0.139,1.589,12-06-2020,14:41:48,0
57efc1de61e8340001876cf0,24,female,1,2,51,Ambigous_right,low_enforcement,10,0,0,left,16,14,1000,1.45,right,right,0.0,10.0,1,0.156,13,29,302.0,139.0,0.139,1.589,12-06-2020,14:41:48,0
57efc1de61e8340001876cf0,24,female,1,2,52,Clear_not_profit_side,low_enforcement,10,0,0,left,18,12,1000,1.45,right,right,0.0,10.0,1,0.35100000000000003,13,29,302.0,139.0,0.139,1.589,12-06-2020,14:41:48,0
57efc1de61e8340001876cf0,24,female,1,2,54,Clear_not_profit_side,low_enforcement,10,0,0,left,18,12,1000,1.45,right,right,0.0,10.0,1,0.098,13,29,302.0,139.0,0.139,1.589,12-06-2020,14:41:48,0
57efc1de61e8340001876cf0,24,female,1,2,55,Clear_not_profit_side,low_enforcement,10,0,0,left,18,12,1000,1.45,right,right,0.0,10.0,1,0.133,13,29,302.0,139.0,0.139,1.589,12-06-2020,14:41:48,0
57efc1de61e8340001876cf0,24,female,1,2,56,Clear_not_profit_side,low_enforcement,10,0,0,left,18,12,1000,1.45,right,right,0.0,10.0,1,0.13,13,29,302.0,139.0,0.139,1.589,12-06-2020,14:41:48,0
57efc1de61e8340001876cf0,24,female,1,2,57,Clear_not_profit_side,low_enforcement,10,1,99,left,18,12,1000,1.45,right,right,0.0,-89.0,1,0.068,13,29,302.0,139.0,0.139,1.589,12-06-2020,14:41:48,0
57efc1de61e8340001876cf0,24,female,1,2,58,Ambigous_right,low_enforcement,10,0,0,left,16,14,1000,1.45,right,left,10.0,0.0,0,0.12300000000000001,13,29,302.0,139.0,0.139,1.589,12-06-2020,14:41:48,1
57efc1de61e8340001876cf0,24,female,1,2,59,Clear_not_profit_side,low_enforcement,10,1,99,left,18,12,1000,1.45,right,right,0.0,-89.0,1,0.10400000000000001,13,29,302.0,139.0,0.139,1.589,12-06-2020,14:41:48,0
57efc1de61e8340001876cf0,24,female,1,2,60,Ambigous_right,low_enforcement,10,1,99,left,16,14,1000,1.45,right,left,-89.0,-99.0,0,0.18600000000000005,13,29,302.0,139.0,0.139,1.589,12-06-2020,14:41:48,1
57efc1de61e8340001876cf0,24,female,1,2,61,Clear_not_profit_side,low_enforcement,10,0,0,left,18,12,1000,1.45,right,right,0.0,10.0,1,0.106,13,29,302.0,139.0,0.139,1.589,12-06-2020,14:41:48,0
57efc1de61e8340001876cf0,24,female,1,2,62,Clear_not_profit_side,low_enforcement,10,0,0,left,18,12,1000,1.45,right,right,0.0,10.0,1,0.10800000000000001,13,29,302.0,139.0,0.139,1.589,12-06-2020,14:41:48,0
57efc1de61e8340001876cf0,24,female,1,2,64,Clear_not_profit_side,low_enforcement,10,0,0,left,18,12,1000,1.45,right,right,0.0,10.0,1,0.086,13,29,302.0,139.0,0.139,1.589,12-06-2020,14:41:48,0
57efc1de61e8340001876cf0,24,female,1,2,68,Clear_not_profit_side,low_enforcement,10,0,0,left,18,12,1000,1.45,right,right,0.0,10.0,1,0.172,13,29,302.0,139.0,0.139,1.589,12-06-2020,14:41:48,0
57efc1de61e8340001876cf0,24,female,1,2,69,Clear_not_profit_side,low_enforcement,10,0,0,left,18,12,1000,1.45,right,right,0.0,10.0,1,0.122,13,29,302.0,139.0,0.139,1.589,12-06-2020,14:41:48,0
57efc1de61e8340001876cf0,24,female,1,2,70,Clear_not_profit_side,low_enforcement,10,0,0,left,18,12,1000,1.45,right,right,0.0,10.0,1,0.16699999999999998,13,29,302.0,139.0,0.139,1.589,12-06-2020,14:41:48,0
57efc1de61e8340001876cf0,24,female,1,2,72,Clear_not_profit_side,low_enforcement,10,0,0,left,18,12,1000,1.45,right,left,10.0,0.0,0,0.136,13,29,302.0,139.0,0.139,1.589,12-06-2020,14:41:48,1
57efc1de61e8340001876cf0,24,female,1,2,73,Clear_not_profit_side,low_enforcement,10,0,0,left,18,12,1000,1.45,right,right,0.0,10.0,1,0.047,13,29,302.0,139.0,0.139,1.589,12-06-2020,14:41:48,0
57efc1de61e8340001876cf0,24,female,1,2,74,Ambigous_right,low_enforcement,10,0,0,left,16,14,1000,1.45,right,right,0.0,10.0,1,0.11900000000000001,13,29,302.0,139.0,0.139,1.589,12-06-2020,14:41:48,0
57efc1de61e8340001876cf0,24,female,1,2,75,Ambigous_right,low_enforcement,10,0,0,left,16,14,1000,1.45,right,right,0.0,10.0,1,0.128,13,29,302.0,139.0,0.139,1.589,12-06-2020,14:41:48,0
57efc1de61e8340001876cf0,24,female,1,2,76,Clear_not_profit_side,low_enforcement,10,0,0,left,18,12,1000,1.45,right,right,0.0,10.0,1,0.172,13,29,302.0,139.0,0.139,1.589,12-06-2020,14:41:48,0
57efc1de61e8340001876cf0,24,female,1,2,86,Clear_not_profit_side,low_enforcement,10,0,0,left,18,12,1000,1.45,right,right,0.0,10.0,1,0.10800000000000001,13,29,302.0,139.0,0.139,1.589,12-06-2020,14:41:48,0
57efc1de61e8340001876cf0,24,female,1,2,87,Ambigous_right,low_enforcement,10,0,0,left,16,14,1000,1.45,right,right,0.0,10.0,1,0.142,13,29,302.0,139.0,0.139,1.589,12-06-2020,14:41:48,0
57efc1de61e8340001876cf0,24,female,1,2,88,Ambigous_right,low_enforcement,10,1,99,left,16,14,1000,1.45,right,left,-89.0,-99.0,0,0.115,13,29,302.0,139.0,0.139,1.589,12-06-2020,14:41:48,1
57efc1de61e8340001876cf0,24,female,1,2,89,Ambigous_right,low_enforcement,10,0,0,left,16,14,1000,1.45,right,right,0.0,10.0,1,0.129,13,29,302.0,139.0,0.139,1.589,12-06-2020,14:41:48,0
57efc1de61e8340001876cf0,24,female,1,2,92,Ambigous_right,low_enforcement,10,0,0,left,16,14,1000,1.45,right,right,0.0,10.0,1,0.142,13,29,302.0,139.0,0.139,1.589,12-06-2020,14:41:48,0
57efc1de61e8340001876cf0,24,female,1,2,93,Ambigous_right,low_enforcement,10,0,0,left,16,14,1000,1.45,right,right,0.0,10.0,1,0.141,13,29,302.0,139.0,0.139,1.589,12-06-2020,14:41:48,0
57efc1de61e8340001876cf0,24,female,1,2,94,Ambigous_right,low_enforcement,10,0,0,left,16,14,1000,1.45,right,left,10.0,0.0,0,0.124,13,29,302.0,139.0,0.139,1.589,12-06-2020,14:41:48,1
57efc1de61e8340001876cf0,24,female,1,2,95,Ambigous_right,low_enforcement,10,0,0,left,16,14,1000,1.45,right,left,10.0,0.0,0,0.11800000000000001,13,29,302.0,139.0,0.139,1.589,12-06-2020,14:41:48,1
57efc1de61e8340001876cf0,24,female,1,2,96,Clear_not_profit_side,low_enforcement,10,0,0,left,18,12,1000,1.45,right,right,0.0,10.0,1,0.124,13,29,302.0,139.0,0.139,1.589,12-06-2020,14:41:48,0
58d43a081877ea000115a2f1,53,female,1,1,2,Clear_not_profit_side,low_enforcement,10,0,0,left,18,12,1000,1.45,right,left,10.0,0.0,0,0.253,37,61,760.0,855.0,0.855,2.305,12-06-2020,14:46:1,1
58d43a081877ea000115a2f1,53,female,1,1,3,Clear_not_profit_side,low_enforcement,10,0,0,left,18,12,1000,1.45,right,right,0.0,10.0,1,0.366,37,61,760.0,855.0,0.855,2.305,12-06-2020,14:46:1,0
58d43a081877ea000115a2f1,53,female,1,1,4,Ambigous_right,low_enforcement,10,0,0,left,16,14,1000,1.45,right,left,10.0,0.0,0,0.23800000000000002,37,61,760.0,855.0,0.855,2.305,12-06-2020,14:46:1,1
58d43a081877ea000115a2f1,53,female,1,1,6,Ambigous_right,low_enforcement,10,0,0,left,16,14,1000,1.45,right,left,10.0,0.0,0,0.26899999999999996,37,61,760.0,855.0,0.855,2.305,12-06-2020,14:46:1,1
58d43a081877ea000115a2f1,53,female,1,1,7,Clear_not_profit_side,low_enforcement,10,0,0,left,18,12,1000,1.45,right,left,10.0,0.0,0,0.33899999999999997,37,61,760.0,855.0,0.855,2.305,12-06-2020,14:46:1,1
58d43a081877ea000115a2f1,53,female,1,1,9,Clear_not_profit_side,low_enforcement,10,0,0,left,18,12,1000,1.45,right,left,10.0,0.0,0,0.242,37,61,760.0,855.0,0.855,2.305,12-06-2020,14:46:1,1
58d43a081877ea000115a2f1,53,female,1,1,13,Clear_not_profit_side,low_enforcement,10,0,0,left,18,12,1000,1.45,right,left,10.0,0.0,0,0.28300000000000003,37,61,760.0,855.0,0.855,2.305,12-06-2020,14:46:1,1
58d43a081877ea000115a2f1,53,female,1,1,15,Clear_not_profit_side,low_enforcement,10,1,99,left,18,12,1000,1.45,right,right,0.0,-89.0,1,0.21600000000000005,37,61,760.0,855.0,0.855,2.305,12-06-2020,14:46:1,0
58d43a081877ea000115a2f1,53,female,1,1,16,Ambigous_right,low_enforcement,10,0,0,left,16,14,1000,1.45,right,left,10.0,0.0,0,0.314,37,61,760.0,855.0,0.855,2.305,12-06-2020,14:46:1,1
58d43a081877ea000115a2f1,53,female,1,1,18,Clear_not_profit_side,low_enforcement,10,0,0,left,18,12,1000,1.45,right,left,10.0,0.0,0,0.5379999999999999,37,61,760.0,855.0,0.855,2.305,12-06-2020,14:46:1,1
58d43a081877ea000115a2f1,53,female,1,1,19,Ambigous_right,low_enforcement,10,0,0,left,16,14,1000,1.45,right,left,10.0,0.0,0,0.228,37,61,760.0,855.0,0.855,2.305,12-06-2020,14:46:1,1
58d43a081877ea000115a2f1,53,female,1,1,20,Clear_not_profit_side,low_enforcement,10,0,0,left,18,12,1000,1.45,right,right,0.0,10.0,1,0.316,37,61,760.0,855.0,0.855,2.305,12-06-2020,14:46:1,0
58d43a081877ea000115a2f1,53,female,1,1,22,Clear_not_profit_side,low_enforcement,10,0,0,left,18,12,1000,1.45,right,left,10.0,0.0,0,0.322,37,61,760.0,855.0,0.855,2.305,12-06-2020,14:46:1,1
58d43a081877ea000115a2f1,53,female,1,1,27,Clear_not_profit_side,low_enforcement,10,0,0,left,18,12,1000,1.45,right,right,0.0,10.0,1,0.314,37,61,760.0,855.0,0.855,2.305,12-06-2020,14:46:1,0
58d43a081877ea000115a2f1,53,female,1,1,28,Ambigous_right,low_enforcement,10,0,0,left,16,14,1000,1.45,right,left,10.0,0.0,0,0.23800000000000002,37,61,760.0,855.0,0.855,2.305,12-06-2020,14:46:1,1
58d43a081877ea000115a2f1,53,female,1,1,31,Ambigous_right,low_enforcement,10,0,0,left,16,14,1000,1.45,right,left,10.0,0.0,0,0.209,37,61,760.0,855.0,0.855,2.305,12-06-2020,14:46:1,1
58d43a081877ea000115a2f1,53,female,1,1,34,Clear_not_profit_side,low_enforcement,10,0,0,left,18,12,1000,1.45,right,left,10.0,0.0,0,0.489,37,61,760.0,855.0,0.855,2.305,12-06-2020,14:46:1,1
58d43a081877ea000115a2f1,53,female,1,1,35,Clear_not_profit_side,low_enforcement,10,0,0,left,18,12,1000,1.45,right,right,0.0,10.0,1,0.297,37,61,760.0,855.0,0.855,2.305,12-06-2020,14:46:1,0
58d43a081877ea000115a2f1,53,female,1,1,36,Clear_not_profit_side,low_enforcement,10,0,0,left,18,12,1000,1.45,right,left,10.0,0.0,0,0.24,37,61,760.0,855.0,0.855,2.305,12-06-2020,14:46:1,1
58d43a081877ea000115a2f1,53,female,1,1,37,Ambigous_right,low_enforcement,10,0,0,left,16,14,1000,1.45,right,left,10.0,0.0,0,0.726,37,61,760.0,855.0,0.855,2.305,12-06-2020,14:46:1,1
58d43a081877ea000115a2f1,53,female,1,1,39,Ambigous_right,low_enforcement,10,0,0,left,16,14,1000,1.45,right,right,0.0,10.0,1,0.263,37,61,760.0,855.0,0.855,2.305,12-06-2020,14:46:1,0
58d43a081877ea000115a2f1,53,female,1,1,42,Clear_not_profit_side,low_enforcement,10,0,0,left,18,12,1000,1.45,right,left,10.0,0.0,0,0.489,37,61,760.0,855.0,0.855,2.305,12-06-2020,14:46:1,1
58d43a081877ea000115a2f1,53,female,1,1,46,Clear_not_profit_side,low_enforcement,10,1,99,left,18,12,1000,1.45,right,right,0.0,-89.0,1,0.27899999999999997,37,61,760.0,855.0,0.855,2.305,12-06-2020,14:46:1,0
58d43a081877ea000115a2f1,53,female,1,1,47,Clear_not_profit_side,low_enforcement,10,0,0,left,18,12,1000,1.45,right,left,10.0,0.0,0,0.28600000000000003,37,61,760.0,855.0,0.855,2.305,12-06-2020,14:46:1,1
58d43a081877ea000115a2f1,53,female,1,1,48,Ambigous_right,low_enforcement,10,0,0,left,16,14,1000,1.45,right,left,10.0,0.0,0,0.20800000000000002,37,61,760.0,855.0,0.855,2.305,12-06-2020,14:46:1,1
58d43a081877ea000115a2f1,53,female,1,1,50,Ambigous_right,low_enforcement,10,0,0,left,16,14,1000,1.45,right,left,10.0,0.0,0,0.271,37,61,760.0,855.0,0.855,2.305,12-06-2020,14:46:1,1
58d43a081877ea000115a2f1,53,female,1,1,51,Clear_not_profit_side,low_enforcement,10,0,0,left,18,12,1000,1.45,right,right,0.0,10.0,1,0.27699999999999997,37,61,760.0,855.0,0.855,2.305,12-06-2020,14:46:1,0
58d43a081877ea000115a2f1,53,female,1,1,52,Ambigous_right,low_enforcement,10,0,0,left,16,14,1000,1.45,right,left,10.0,0.0,0,0.222,37,61,760.0,855.0,0.855,2.305,12-06-2020,14:46:1,1
58d43a081877ea000115a2f1,53,female,1,1,53,Ambigous_right,low_enforcement,10,0,0,left,16,14,1000,1.45,right,left,10.0,0.0,0,0.258,37,61,760.0,855.0,0.855,2.305,12-06-2020,14:46:1,1
58d43a081877ea000115a2f1,53,female,1,1,54,Ambigous_right,low_enforcement,10,0,0,left,16,14,1000,1.45,right,left,10.0,0.0,0,1.181,37,61,760.0,855.0,0.855,2.305,12-06-2020,14:46:1,1
58d43a081877ea000115a2f1,53,female,1,1,55,Ambigous_right,low_enforcement,10,0,0,left,16,14,1000,1.45,right,left,10.0,0.0,0,0.22899999999999998,37,61,760.0,855.0,0.855,2.305,12-06-2020,14:46:1,1
58d43a081877ea000115a2f1,53,female,1,1,56,Clear_not_profit_side,low_enforcement,10,0,0,left,18,12,1000,1.45,right,right,0.0,10.0,1,0.258,37,61,760.0,855.0,0.855,2.305,12-06-2020,14:46:1,0
58d43a081877ea000115a2f1,53,female,1,1,58,Clear_not_profit_side,low_enforcement,10,0,0,left,18,12,1000,1.45,right,left,10.0,0.0,0,0.38,37,61,760.0,855.0,0.855,2.305,12-06-2020,14:46:1,1
58d43a081877ea000115a2f1,53,female,1,1,59,Ambigous_right,low_enforcement,10,0,0,left,16,14,1000,1.45,right,left,10.0,0.0,0,0.20800000000000002,37,61,760.0,855.0,0.855,2.305,12-06-2020,14:46:1,1
58d43a081877ea000115a2f1,53,female,1,1,61,Clear_not_profit_side,low_enforcement,10,0,0,left,18,12,1000,1.45,right,right,0.0,10.0,1,0.242,37,61,760.0,855.0,0.855,2.305,12-06-2020,14:46:1,0
58d43a081877ea000115a2f1,53,female,1,1,63,Ambigous_right,low_enforcement,10,0,0,left,16,14,1000,1.45,right,right,0.0,10.0,1,0.353,37,61,760.0,855.0,0.855,2.305,12-06-2020,14:46:1,0
58d43a081877ea000115a2f1,53,female,1,1,66,Clear_not_profit_side,low_enforcement,10,0,0,left,18,12,1000,1.45,right,left,10.0,0.0,0,0.256,37,61,760.0,855.0,0.855,2.305,12-06-2020,14:46:1,1
58d43a081877ea000115a2f1,53,female,1,1,68,Ambigous_right,low_enforcement,10,0,0,left,16,14,1000,1.45,right,right,0.0,10.0,1,0.326,37,61,760.0,855.0,0.855,2.305,12-06-2020,14:46:1,0
58d43a081877ea000115a2f1,53,female,1,1,69,Ambigous_right,low_enforcement,10,0,0,left,16,14,1000,1.45,right,left,10.0,0.0,0,0.28300000000000003,37,61,760.0,855.0,0.855,2.305,12-06-2020,14:46:1,1
58d43a081877ea000115a2f1,53,female,1,1,70,Ambigous_right,low_enforcement,10,0,0,left,16,14,1000,1.45,right,right,0.0,10.0,1,0.43799999999999994,37,61,760.0,855.0,0.855,2.305,12-06-2020,14:46:1,0
58d43a081877ea000115a2f1,53,female,1,1,71,Ambigous_right,low_enforcement,10,0,0,left,16,14,1000,1.45,right,right,0.0,10.0,1,0.205,37,61,760.0,855.0,0.855,2.305,12-06-2020,14:46:1,0
58d43a081877ea000115a2f1,53,female,1,1,77,Clear_not_profit_side,low_enforcement,10,0,0,left,18,12,1000,1.45,right,right,0.0,10.0,1,0.239,37,61,760.0,855.0,0.855,2.305,12-06-2020,14:46:1,0
58d43a081877ea000115a2f1,53,female,1,1,79,Ambigous_right,low_enforcement,10,0,0,left,16,14,1000,1.45,right,left,10.0,0.0,0,0.305,37,61,760.0,855.0,0.855,2.305,12-06-2020,14:46:1,1
58d43a081877ea000115a2f1,53,female,1,1,80,Clear_not_profit_side,low_enforcement,10,0,0,left,18,12,1000,1.45,right,right,0.0,10.0,1,0.23600000000000002,37,61,760.0,855.0,0.855,2.305,12-06-2020,14:46:1,0
58d43a081877ea000115a2f1,53,female,1,1,81,Clear_not_profit_side,low_enforcement,10,0,0,left,18,12,1000,1.45,right,right,0.0,10.0,1,0.263,37,61,760.0,855.0,0.855,2.305,12-06-2020,14:46:1,0
58d43a081877ea000115a2f1,53,female,1,1,82,Ambigous_right,low_enforcement,10,0,0,left,16,14,1000,1.45,right,left,10.0,0.0,0,0.23399999999999999,37,61,760.0,855.0,0.855,2.305,12-06-2020,14:46:1,1
58d43a081877ea000115a2f1,53,female,1,1,84,Clear_not_profit_side,low_enforcement,10,0,0,left,18,12,1000,1.45,right,right,0.0,10.0,1,0.32899999999999996,37,61,760.0,855.0,0.855,2.305,12-06-2020,14:46:1,0
58d43a081877ea000115a2f1,53,female,1,1,85,Clear_not_profit_side,low_enforcement,10,0,0,left,18,12,1000,1.45,right,right,0.0,10.0,1,0.213,37,61,760.0,855.0,0.855,2.305,12-06-2020,14:46:1,0
58d43a081877ea000115a2f1,53,female,1,1,86,Clear_not_profit_side,low_enforcement,10,0,0,left,18,12,1000,1.45,right,right,0.0,10.0,1,0.262,37,61,760.0,855.0,0.855,2.305,12-06-2020,14:46:1,0
58d43a081877ea000115a2f1,53,female,1,1,87,Ambigous_right,low_enforcement,10,0,0,left,16,14,1000,1.45,right,left,10.0,0.0,0,0.297,37,61,760.0,855.0,0.855,2.305,12-06-2020,14:46:1,1
58d43a081877ea000115a2f1,53,female,1,1,89,Clear_not_profit_side,low_enforcement,10,0,0,left,18,12,1000,1.45,right,right,0.0,10.0,1,0.226,37,61,760.0,855.0,0.855,2.305,12-06-2020,14:46:1,0
58d43a081877ea000115a2f1,53,female,1,1,90,Clear_not_profit_side,low_enforcement,10,0,0,left,18,12,1000,1.45,right,left,10.0,0.0,0,0.299,37,61,760.0,855.0,0.855,2.305,12-06-2020,14:46:1,1
58d43a081877ea000115a2f1,53,female,1,1,91,Ambigous_right,low_enforcement,10,0,0,left,16,14,1000,1.45,right,left,10.0,0.0,0,0.259,37,61,760.0,855.0,0.855,2.305,12-06-2020,14:46:1,1
58d43a081877ea000115a2f1,53,female,1,1,93,Clear_not_profit_side,low_enforcement,10,0,0,left,18,12,1000,1.45,right,left,10.0,0.0,0,0.581,37,61,760.0,855.0,0.855,2.305,12-06-2020,14:46:1,1
58d43a081877ea000115a2f1,53,female,1,1,94,Clear_not_profit_side,low_enforcement,10,0,0,left,18,12,1000,1.45,right,right,0.0,10.0,1,0.261,37,61,760.0,855.0,0.855,2.305,12-06-2020,14:46:1,0
58d43a081877ea000115a2f1,53,female,1,1,95,Clear_not_profit_side,low_enforcement,10,0,0,left,18,12,1000,1.45,right,left,10.0,0.0,0,0.233,37,61,760.0,855.0,0.855,2.305,12-06-2020,14:46:1,1
58d43a081877ea000115a2f1,53,female,1,1,98,Clear_not_profit_side,low_enforcement,10,0,0,left,18,12,1000,1.45,right,right,0.0,10.0,1,0.244,37,61,760.0,855.0,0.855,2.305,12-06-2020,14:46:1,0
58d43a081877ea000115a2f1,53,female,1,1,99,Clear_not_profit_side,low_enforcement,10,0,0,left,18,12,1000,1.45,right,left,10.0,0.0,0,0.265,37,61,760.0,855.0,0.855,2.305,12-06-2020,14:46:1,1
58d43a081877ea000115a2f1,53,female,1,1,100,Ambigous_right,low_enforcement,10,0,0,left,16,14,1000,1.45,right,left,10.0,0.0,0,0.243,37,61,760.0,855.0,0.855,2.305,12-06-2020,14:46:1,1
58d43a081877ea000115a2f1,53,female,1,2,2,Clear_not_profit_side,low_enforcement,10,1,99,left,18,12,1000,1.45,right,right,0.0,-89.0,1,0.22699999999999998,24,61,95.0,855.0,0.855,2.305,12-06-2020,14:46:1,0
58d43a081877ea000115a2f1,53,female,1,2,3,Ambigous_right,low_enforcement,10,0,0,left,16,14,1000,1.45,right,left,10.0,0.0,0,0.562,24,61,95.0,855.0,0.855,2.305,12-06-2020,14:46:1,1
58d43a081877ea000115a2f1,53,female,1,2,5,Clear_not_profit_side,low_enforcement,10,0,0,left,18,12,1000,1.45,right,right,0.0,10.0,1,0.318,24,61,95.0,855.0,0.855,2.305,12-06-2020,14:46:1,0
58d43a081877ea000115a2f1,53,female,1,2,6,Clear_not_profit_side,low_enforcement,10,0,0,left,18,12,1000,1.45,right,left,10.0,0.0,0,0.233,24,61,95.0,855.0,0.855,2.305,12-06-2020,14:46:1,1
58d43a081877ea000115a2f1,53,female,1,2,7,Clear_not_profit_side,low_enforcement,10,0,0,left,18,12,1000,1.45,right,right,0.0,10.0,1,0.252,24,61,95.0,855.0,0.855,2.305,12-06-2020,14:46:1,0
58d43a081877ea000115a2f1,53,female,1,2,9,Clear_not_profit_side,low_enforcement,10,0,0,left,18,12,1000,1.45,right,left,10.0,0.0,0,0.214,24,61,95.0,855.0,0.855,2.305,12-06-2020,14:46:1,1
58d43a081877ea000115a2f1,53,female,1,2,10,Clear_not_profit_side,low_enforcement,10,0,0,left,18,12,1000,1.45,right,right,0.0,10.0,1,0.22899999999999998,24,61,95.0,855.0,0.855,2.305,12-06-2020,14:46:1,0
58d43a081877ea000115a2f1,53,female,1,2,11,Clear_not_profit_side,low_enforcement,10,0,0,left,18,12,1000,1.45,right,left,10.0,0.0,0,0.24600000000000002,24,61,95.0,855.0,0.855,2.305,12-06-2020,14:46:1,1
58d43a081877ea000115a2f1,53,female,1,2,13,Clear_not_profit_side,low_enforcement,10,0,0,left,18,12,1000,1.45,right,right,0.0,10.0,1,0.239,24,61,95.0,855.0,0.855,2.305,12-06-2020,14:46:1,0
58d43a081877ea000115a2f1,53,female,1,2,14,Ambigous_right,low_enforcement,10,1,99,left,16,14,1000,1.45,right,left,-89.0,-99.0,0,0.265,24,61,95.0,855.0,0.855,2.305,12-06-2020,14:46:1,1
58d43a081877ea000115a2f1,53,female,1,2,16,Clear_not_profit_side,low_enforcement,10,0,0,left,18,12,1000,1.45,right,left,10.0,0.0,0,0.278,24,61,95.0,855.0,0.855,2.305,12-06-2020,14:46:1,1
58d43a081877ea000115a2f1,53,female,1,2,17,Ambigous_right,low_enforcement,10,0,0,left,16,14,1000,1.45,right,right,0.0,10.0,1,0.252,24,61,95.0,855.0,0.855,2.305,12-06-2020,14:46:1,0
58d43a081877ea000115a2f1,53,female,1,2,19,Ambigous_right,low_enforcement,10,0,0,left,16,14,1000,1.45,right,left,10.0,0.0,0,0.21899999999999997,24,61,95.0,855.0,0.855,2.305,12-06-2020,14:46:1,1
58d43a081877ea000115a2f1,53,female,1,2,22,Ambigous_right,low_enforcement,10,0,0,left,16,14,1000,1.45,right,left,10.0,0.0,0,0.175,24,61,95.0,855.0,0.855,2.305,12-06-2020,14:46:1,1
58d43a081877ea000115a2f1,53,female,1,2,24,Ambigous_right,low_enforcement,10,0,0,left,16,14,1000,1.45,right,left,10.0,0.0,0,0.45399999999999996,24,61,95.0,855.0,0.855,2.305,12-06-2020,14:46:1,1
58d43a081877ea000115a2f1,53,female,1,2,25,Clear_not_profit_side,low_enforcement,10,1,99,left,18,12,1000,1.45,right,right,0.0,-89.0,1,0.23399999999999999,24,61,95.0,855.0,0.855,2.305,12-06-2020,14:46:1,0
58d43a081877ea000115a2f1,53,female,1,2,27,Clear_not_profit_side,low_enforcement,10,1,99,left,18,12,1000,1.45,right,left,-89.0,-99.0,0,0.698,24,61,95.0,855.0,0.855,2.305,12-06-2020,14:46:1,1
58d43a081877ea000115a2f1,53,female,1,2,29,Ambigous_right,low_enforcement,10,0,0,left,16,14,1000,1.45,right,left,10.0,0.0,0,0.153,24,61,95.0,855.0,0.855,2.305,12-06-2020,14:46:1,1
58d43a081877ea000115a2f1,53,female,1,2,30,Ambigous_right,low_enforcement,10,0,0,left,16,14,1000,1.45,right,left,10.0,0.0,0,0.17,24,61,95.0,855.0,0.855,2.305,12-06-2020,14:46:1,1
58d43a081877ea000115a2f1,53,female,1,2,32,Clear_not_profit_side,low_enforcement,10,0,0,left,18,12,1000,1.45,right,right,0.0,10.0,1,0.28,24,61,95.0,855.0,0.855,2.305,12-06-2020,14:46:1,0
58d43a081877ea000115a2f1,53,female,1,2,33,Clear_not_profit_side,low_enforcement,10,1,99,left,18,12,1000,1.45,right,left,-89.0,-99.0,0,0.276,24,61,95.0,855.0,0.855,2.305,12-06-2020,14:46:1,1
58d43a081877ea000115a2f1,53,female,1,2,35,Clear_not_profit_side,low_enforcement,10,1,99,left,18,12,1000,1.45,right,right,0.0,-89.0,1,0.19699999999999998,24,61,95.0,855.0,0.855,2.305,12-06-2020,14:46:1,0
58d43a081877ea000115a2f1,53,female,1,2,38,Ambigous_right,low_enforcement,10,0,0,left,16,14,1000,1.45,right,right,0.0,10.0,1,0.217,24,61,95.0,855.0,0.855,2.305,12-06-2020,14:46:1,0
58d43a081877ea000115a2f1,53,female,1,2,40,Ambigous_right,low_enforcement,10,0,0,left,16,14,1000,1.45,right,right,0.0,10.0,1,0.299,24,61,95.0,855.0,0.855,2.305,12-06-2020,14:46:1,0
58d43a081877ea000115a2f1,53,female,1,2,41,Ambigous_right,low_enforcement,10,0,0,left,16,14,1000,1.45,right,right,0.0,10.0,1,0.196,24,61,95.0,855.0,0.855,2.305,12-06-2020,14:46:1,0
58d43a081877ea000115a2f1,53,female,1,2,43,Ambigous_right,low_enforcement,10,1,99,left,16,14,1000,1.45,right,left,-89.0,-99.0,0,0.267,24,61,95.0,855.0,0.855,2.305,12-06-2020,14:46:1,1
58d43a081877ea000115a2f1,53,female,1,2,44,Clear_not_profit_side,low_enforcement,10,0,0,left,18,12,1000,1.45,right,right,0.0,10.0,1,0.22699999999999998,24,61,95.0,855.0,0.855,2.305,12-06-2020,14:46:1,0
58d43a081877ea000115a2f1,53,female,1,2,46,Ambigous_right,low_enforcement,10,0,0,left,16,14,1000,1.45,right,right,0.0,10.0,1,0.35,24,61,95.0,855.0,0.855,2.305,12-06-2020,14:46:1,0
58d43a081877ea000115a2f1,53,female,1,2,47,Clear_not_profit_side,low_enforcement,10,0,0,left,18,12,1000,1.45,right,left,10.0,0.0,0,0.205,24,61,95.0,855.0,0.855,2.305,12-06-2020,14:46:1,1
58d43a081877ea000115a2f1,53,female,1,2,48,Ambigous_right,low_enforcement,10,0,0,left,16,14,1000,1.45,right,left,10.0,0.0,0,0.228,24,61,95.0,855.0,0.855,2.305,12-06-2020,14:46:1,1
58d43a081877ea000115a2f1,53,female,1,2,49,Ambigous_right,low_enforcement,10,0,0,left,16,14,1000,1.45,right,right,0.0,10.0,1,0.231,24,61,95.0,855.0,0.855,2.305,12-06-2020,14:46:1,0
58d43a081877ea000115a2f1,53,female,1,2,50,Clear_not_profit_side,low_enforcement,10,0,0,left,18,12,1000,1.45,right,right,0.0,10.0,1,0.214,24,61,95.0,855.0,0.855,2.305,12-06-2020,14:46:1,0
58d43a081877ea000115a2f1,53,female,1,2,51,Clear_not_profit_side,low_enforcement,10,0,0,left,18,12,1000,1.45,right,right,0.0,10.0,1,0.244,24,61,95.0,855.0,0.855,2.305,12-06-2020,14:46:1,0
58d43a081877ea000115a2f1,53,female,1,2,52,Clear_not_profit_side,low_enforcement,10,0,0,left,18,12,1000,1.45,right,right,0.0,10.0,1,0.214,24,61,95.0,855.0,0.855,2.305,12-06-2020,14:46:1,0
58d43a081877ea000115a2f1,53,female,1,2,53,Clear_not_profit_side,low_enforcement,10,0,0,left,18,12,1000,1.45,right,right,0.0,10.0,1,0.207,24,61,95.0,855.0,0.855,2.305,12-06-2020,14:46:1,0
58d43a081877ea000115a2f1,53,female,1,2,54,Ambigous_right,low_enforcement,10,0,0,left,16,14,1000,1.45,right,right,0.0,10.0,1,0.207,24,61,95.0,855.0,0.855,2.305,12-06-2020,14:46:1,0
58d43a081877ea000115a2f1,53,female,1,2,55,Clear_not_profit_side,low_enforcement,10,0,0,left,18,12,1000,1.45,right,right,0.0,10.0,1,0.23,24,61,95.0,855.0,0.855,2.305,12-06-2020,14:46:1,0
58d43a081877ea000115a2f1,53,female,1,2,56,Ambigous_right,low_enforcement,10,0,0,left,16,14,1000,1.45,right,left,10.0,0.0,0,0.205,24,61,95.0,855.0,0.855,2.305,12-06-2020,14:46:1,1
58d43a081877ea000115a2f1,53,female,1,2,57,Ambigous_right,low_enforcement,10,0,0,left,16,14,1000,1.45,right,right,0.0,10.0,1,0.214,24,61,95.0,855.0,0.855,2.305,12-06-2020,14:46:1,0
58d43a081877ea000115a2f1,53,female,1,2,61,Clear_not_profit_side,low_enforcement,10,0,0,left,18,12,1000,1.45,right,right,0.0,10.0,1,0.23600000000000002,24,61,95.0,855.0,0.855,2.305,12-06-2020,14:46:1,0
58d43a081877ea000115a2f1,53,female,1,2,66,Clear_not_profit_side,low_enforcement,10,0,0,left,18,12,1000,1.45,right,right,0.0,10.0,1,0.23399999999999999,24,61,95.0,855.0,0.855,2.305,12-06-2020,14:46:1,0
58d43a081877ea000115a2f1,53,female,1,2,68,Clear_not_profit_side,low_enforcement,10,0,0,left,18,12,1000,1.45,right,left,10.0,0.0,0,0.16,24,61,95.0,855.0,0.855,2.305,12-06-2020,14:46:1,1
58d43a081877ea000115a2f1,53,female,1,2,69,Clear_not_profit_side,low_enforcement,10,0,0,left,18,12,1000,1.45,right,right,0.0,10.0,1,0.198,24,61,95.0,855.0,0.855,2.305,12-06-2020,14:46:1,0
58d43a081877ea000115a2f1,53,female,1,2,71,Ambigous_right,low_enforcement,10,0,0,left,16,14,1000,1.45,right,right,0.0,10.0,1,0.21899999999999997,24,61,95.0,855.0,0.855,2.305,12-06-2020,14:46:1,0
58d43a081877ea000115a2f1,53,female,1,2,72,Clear_not_profit_side,low_enforcement,10,0,0,left,18,12,1000,1.45,right,right,0.0,10.0,1,0.29100000000000004,24,61,95.0,855.0,0.855,2.305,12-06-2020,14:46:1,0
58d43a081877ea000115a2f1,53,female,1,2,75,Ambigous_right,low_enforcement,10,0,0,left,16,14,1000,1.45,right,right,0.0,10.0,1,0.182,24,61,95.0,855.0,0.855,2.305,12-06-2020,14:46:1,0
58d43a081877ea000115a2f1,53,female,1,2,76,Clear_not_profit_side,low_enforcement,10,0,0,left,18,12,1000,1.45,right,right,0.0,10.0,1,0.233,24,61,95.0,855.0,0.855,2.305,12-06-2020,14:46:1,0
58d43a081877ea000115a2f1,53,female,1,2,77,Clear_not_profit_side,low_enforcement,10,0,0,left,18,12,1000,1.45,right,left,10.0,0.0,0,0.226,24,61,95.0,855.0,0.855,2.305,12-06-2020,14:46:1,1
58d43a081877ea000115a2f1,53,female,1,2,78,Clear_not_profit_side,low_enforcement,10,0,0,left,18,12,1000,1.45,right,right,0.0,10.0,1,0.22,24,61,95.0,855.0,0.855,2.305,12-06-2020,14:46:1,0
58d43a081877ea000115a2f1,53,female,1,2,79,Ambigous_right,low_enforcement,10,0,0,left,16,14,1000,1.45,right,right,0.0,10.0,1,0.19,24,61,95.0,855.0,0.855,2.305,12-06-2020,14:46:1,0
58d43a081877ea000115a2f1,53,female,1,2,80,Ambigous_right,low_enforcement,10,0,0,left,16,14,1000,1.45,right,left,10.0,0.0,0,0.214,24,61,95.0,855.0,0.855,2.305,12-06-2020,14:46:1,1
58d43a081877ea000115a2f1,53,female,1,2,81,Ambigous_right,low_enforcement,10,1,99,left,16,14,1000,1.45,right,right,0.0,-89.0,1,0.22699999999999998,24,61,95.0,855.0,0.855,2.305,12-06-2020,14:46:1,0
58d43a081877ea000115a2f1,53,female,1,2,84,Clear_not_profit_side,low_enforcement,10,0,0,left,18,12,1000,1.45,right,right,0.0,10.0,1,0.221,24,61,95.0,855.0,0.855,2.305,12-06-2020,14:46:1,0
58d43a081877ea000115a2f1,53,female,1,2,86,Clear_not_profit_side,low_enforcement,10,0,0,left,18,12,1000,1.45,right,right,0.0,10.0,1,0.195,24,61,95.0,855.0,0.855,2.305,12-06-2020,14:46:1,0
58d43a081877ea000115a2f1,53,female,1,2,88,Clear_not_profit_side,low_enforcement,10,0,0,left,18,12,1000,1.45,right,right,0.0,10.0,1,0.27899999999999997,24,61,95.0,855.0,0.855,2.305,12-06-2020,14:46:1,0
58d43a081877ea000115a2f1,53,female,1,2,92,Clear_not_profit_side,low_enforcement,10,0,0,left,18,12,1000,1.45,right,right,0.0,10.0,1,0.21600000000000005,24,61,95.0,855.0,0.855,2.305,12-06-2020,14:46:1,0
58d43a081877ea000115a2f1,53,female,1,2,93,Ambigous_right,low_enforcement,10,0,0,left,16,14,1000,1.45,right,left,10.0,0.0,0,0.264,24,61,95.0,855.0,0.855,2.305,12-06-2020,14:46:1,1
58d43a081877ea000115a2f1,53,female,1,2,98,Clear_not_profit_side,low_enforcement,10,0,0,left,18,12,1000,1.45,right,right,0.0,10.0,1,0.207,24,61,95.0,855.0,0.855,2.305,12-06-2020,14:46:1,0
58d43a081877ea000115a2f1,53,female,1,2,100,Ambigous_right,low_enforcement,10,0,0,left,16,14,1000,1.45,right,right,0.0,10.0,1,0.22,24,61,95.0,855.0,0.855,2.305,12-06-2020,14:46:1,0
591ae79648e91b00014bcdbb,29,female,0,1,1,Clear_not_profit_side,low_enforcement,10,1,99,right,12,18,1000,1.45,left,right,-89.0,-99.0,0,0.46399999999999997,30,48,36.0,329.0,0.329,1.7790000000000001,12-06-2020,14:25:11,1
591ae79648e91b00014bcdbb,29,female,0,1,2,Ambigous_left,low_enforcement,10,0,0,right,14,16,1000,1.45,left,right,10.0,0.0,0,0.332,30,48,36.0,329.0,0.329,1.7790000000000001,12-06-2020,14:25:11,1
591ae79648e91b00014bcdbb,29,female,0,1,4,Clear_not_profit_side,low_enforcement,10,0,0,right,12,18,1000,1.45,left,left,0.0,10.0,1,0.26899999999999996,30,48,36.0,329.0,0.329,1.7790000000000001,12-06-2020,14:25:11,0
591ae79648e91b00014bcdbb,29,female,0,1,7,Clear_not_profit_side,low_enforcement,10,0,0,right,12,18,1000,1.45,left,left,0.0,10.0,1,0.187,30,48,36.0,329.0,0.329,1.7790000000000001,12-06-2020,14:25:11,0
591ae79648e91b00014bcdbb,29,female,0,1,8,Clear_not_profit_side,low_enforcement,10,0,0,right,12,18,1000,1.45,left,left,0.0,10.0,1,0.18600000000000005,30,48,36.0,329.0,0.329,1.7790000000000001,12-06-2020,14:25:11,0
591ae79648e91b00014bcdbb,29,female,0,1,11,Ambigous_left,low_enforcement,10,0,0,right,14,16,1000,1.45,left,right,10.0,0.0,0,0.185,30,48,36.0,329.0,0.329,1.7790000000000001,12-06-2020,14:25:11,1
591ae79648e91b00014bcdbb,29,female,0,1,13,Clear_not_profit_side,low_enforcement,10,0,0,right,12,18,1000,1.45,left,left,0.0,10.0,1,0.18600000000000005,30,48,36.0,329.0,0.329,1.7790000000000001,12-06-2020,14:25:11,0
591ae79648e91b00014bcdbb,29,female,0,1,14,Clear_not_profit_side,low_enforcement,10,0,0,right,12,18,1000,1.45,left,right,10.0,0.0,0,0.222,30,48,36.0,329.0,0.329,1.7790000000000001,12-06-2020,14:25:11,1
591ae79648e91b00014bcdbb,29,female,0,1,17,Ambigous_left,low_enforcement,10,0,0,right,14,16,1000,1.45,left,right,10.0,0.0,0,0.305,30,48,36.0,329.0,0.329,1.7790000000000001,12-06-2020,14:25:11,1
591ae79648e91b00014bcdbb,29,female,0,1,18,Clear_not_profit_side,low_enforcement,10,1,99,right,12,18,1000,1.45,left,right,-89.0,-99.0,0,0.305,30,48,36.0,329.0,0.329,1.7790000000000001,12-06-2020,14:25:11,1
591ae79648e91b00014bcdbb,29,female,0,1,20,Ambigous_left,low_enforcement,10,1,99,right,14,16,1000,1.45,left,right,-89.0,-99.0,0,0.184,30,48,36.0,329.0,0.329,1.7790000000000001,12-06-2020,14:25:11,1
591ae79648e91b00014bcdbb,29,female,0,1,23,Clear_not_profit_side,low_enforcement,10,0,0,right,12,18,1000,1.45,left,left,0.0,10.0,1,0.17300000000000001,30,48,36.0,329.0,0.329,1.7790000000000001,12-06-2020,14:25:11,0
591ae79648e91b00014bcdbb,29,female,0,1,24,Clear_not_profit_side,low_enforcement,10,0,0,right,12,18,1000,1.45,left,left,0.0,10.0,1,0.223,30,48,36.0,329.0,0.329,1.7790000000000001,12-06-2020,14:25:11,0
591ae79648e91b00014bcdbb,29,female,0,1,25,Clear_not_profit_side,low_enforcement,10,0,0,right,12,18,1000,1.45,left,left,0.0,10.0,1,0.18100000000000002,30,48,36.0,329.0,0.329,1.7790000000000001,12-06-2020,14:25:11,0
591ae79648e91b00014bcdbb,29,female,0,1,26,Ambigous_left,low_enforcement,10,0,0,right,14,16,1000,1.45,left,left,0.0,10.0,1,0.27,30,48,36.0,329.0,0.329,1.7790000000000001,12-06-2020,14:25:11,0
591ae79648e91b00014bcdbb,29,female,0,1,28,Clear_not_profit_side,low_enforcement,10,0,0,right,12,18,1000,1.45,left,left,0.0,10.0,1,0.20199999999999999,30,48,36.0,329.0,0.329,1.7790000000000001,12-06-2020,14:25:11,0
591ae79648e91b00014bcdbb,29,female,0,1,29,Clear_not_profit_side,low_enforcement,10,0,0,right,12,18,1000,1.45,left,left,0.0,10.0,1,0.172,30,48,36.0,329.0,0.329,1.7790000000000001,12-06-2020,14:25:11,0
591ae79648e91b00014bcdbb,29,female,0,1,31,Ambigous_left,low_enforcement,10,0,0,right,14,16,1000,1.45,left,right,10.0,0.0,0,0.24100000000000002,30,48,36.0,329.0,0.329,1.7790000000000001,12-06-2020,14:25:11,1
591ae79648e91b00014bcdbb,29,female,0,1,34,Clear_not_profit_side,low_enforcement,10,0,0,right,12,18,1000,1.45,left,left,0.0,10.0,1,0.18600000000000005,30,48,36.0,329.0,0.329,1.7790000000000001,12-06-2020,14:25:11,0
591ae79648e91b00014bcdbb,29,female,0,1,35,Clear_not_profit_side,low_enforcement,10,0,0,right,12,18,1000,1.45,left,left,0.0,10.0,1,0.19399999999999998,30,48,36.0,329.0,0.329,1.7790000000000001,12-06-2020,14:25:11,0
591ae79648e91b00014bcdbb,29,female,0,1,37,Clear_not_profit_side,low_enforcement,10,0,0,right,12,18,1000,1.45,left,right,10.0,0.0,0,0.209,30,48,36.0,329.0,0.329,1.7790000000000001,12-06-2020,14:25:11,1
591ae79648e91b00014bcdbb,29,female,0,1,38,Clear_not_profit_side,low_enforcement,10,0,0,right,12,18,1000,1.45,left,left,0.0,10.0,1,0.16699999999999998,30,48,36.0,329.0,0.329,1.7790000000000001,12-06-2020,14:25:11,0
591ae79648e91b00014bcdbb,29,female,0,1,39,Ambigous_left,low_enforcement,10,0,0,right,14,16,1000,1.45,left,left,0.0,10.0,1,0.285,30,48,36.0,329.0,0.329,1.7790000000000001,12-06-2020,14:25:11,0
591ae79648e91b00014bcdbb,29,female,0,1,40,Ambigous_left,low_enforcement,10,0,0,right,14,16,1000,1.45,left,right,10.0,0.0,0,0.174,30,48,36.0,329.0,0.329,1.7790000000000001,12-06-2020,14:25:11,1
591ae79648e91b00014bcdbb,29,female,0,1,41,Ambigous_left,low_enforcement,10,0,0,right,14,16,1000,1.45,left,right,10.0,0.0,0,0.168,30,48,36.0,329.0,0.329,1.7790000000000001,12-06-2020,14:25:11,1
591ae79648e91b00014bcdbb,29,female,0,1,42,Clear_not_profit_side,low_enforcement,10,1,99,right,12,18,1000,1.45,left,left,0.0,-89.0,1,0.162,30,48,36.0,329.0,0.329,1.7790000000000001,12-06-2020,14:25:11,0
591ae79648e91b00014bcdbb,29,female,0,1,43,Clear_not_profit_side,low_enforcement,10,0,0,right,12,18,1000,1.45,left,right,10.0,0.0,0,0.22699999999999998,30,48,36.0,329.0,0.329,1.7790000000000001,12-06-2020,14:25:11,1
591ae79648e91b00014bcdbb,29,female,0,1,45,Clear_not_profit_side,low_enforcement,10,1,99,right,12,18,1000,1.45,left,left,0.0,-89.0,1,0.156,30,48,36.0,329.0,0.329,1.7790000000000001,12-06-2020,14:25:11,0
591ae79648e91b00014bcdbb,29,female,0,1,46,Ambigous_left,low_enforcement,10,0,0,right,14,16,1000,1.45,left,left,0.0,10.0,1,0.16399999999999998,30,48,36.0,329.0,0.329,1.7790000000000001,12-06-2020,14:25:11,0
591ae79648e91b00014bcdbb,29,female,0,1,50,Ambigous_left,low_enforcement,10,0,0,right,14,16,1000,1.45,left,left,0.0,10.0,1,0.217,30,48,36.0,329.0,0.329,1.7790000000000001,12-06-2020,14:25:11,0
591ae79648e91b00014bcdbb,29,female,0,1,53,Ambigous_left,low_enforcement,10,0,0,right,14,16,1000,1.45,left,left,0.0,10.0,1,0.174,30,48,36.0,329.0,0.329,1.7790000000000001,12-06-2020,14:25:11,0
591ae79648e91b00014bcdbb,29,female,0,1,54,Clear_not_profit_side,low_enforcement,10,0,0,right,12,18,1000,1.45,left,right,10.0,0.0,0,0.201,30,48,36.0,329.0,0.329,1.7790000000000001,12-06-2020,14:25:11,1
591ae79648e91b00014bcdbb,29,female,0,1,55,Clear_not_profit_side,low_enforcement,10,0,0,right,12,18,1000,1.45,left,left,0.0,10.0,1,0.187,30,48,36.0,329.0,0.329,1.7790000000000001,12-06-2020,14:25:11,0
591ae79648e91b00014bcdbb,29,female,0,1,59,Ambigous_left,low_enforcement,10,0,0,right,14,16,1000,1.45,left,left,0.0,10.0,1,0.175,30,48,36.0,329.0,0.329,1.7790000000000001,12-06-2020,14:25:11,0
591ae79648e91b00014bcdbb,29,female,0,1,61,Clear_not_profit_side,low_enforcement,10,0,0,right,12,18,1000,1.45,left,left,0.0,10.0,1,0.16699999999999998,30,48,36.0,329.0,0.329,1.7790000000000001,12-06-2020,14:25:11,0
591ae79648e91b00014bcdbb,29,female,0,1,62,Ambigous_left,low_enforcement,10,0,0,right,14,16,1000,1.45,left,left,0.0,10.0,1,0.162,30,48,36.0,329.0,0.329,1.7790000000000001,12-06-2020,14:25:11,0
