user_id,age,gender,attention,block_number,trial_number,trial_type,conditions,p_inspection,inspection,fine_size,profitable_side,true_side,choice,trial_payoff,alternative_payoff,choice_correct,rt_choice,block_errors,block_payoff,final_payoff,bonus,final_payment,error,b1_cheating,b2_cheating,b1_sum,b2_sum
56100d727ffc8a0005811338,43,female,1,1,12,Clear_profit_side,3,0,0,0,left,left,left,2,1,1,0.318,6,141,277,0.27699999999999997,1.727,0,0,0,0,0
56100d727ffc8a0005811338,43,female,1,1,25,Clear_profit_side,3,0,0,0,left,left,left,2,1,1,0.25,6,141,277,0.27699999999999997,1.727,0,0,0,0,0
56100d727ffc8a0005811338,43,female,1,1,27,Clear_profit_side,3,0,0,0,left,left,left,2,1,1,0.257,6,141,277,0.27699999999999997,1.727,0,0,0,0,0
56100d727ffc8a0005811338,43,female,1,1,31,Clear_profit_side,3,0,0,0,left,left,left,2,1,1,0.193,6,141,277,0.27699999999999997,1.727,0,0,0,0,0
56100d727ffc8a0005811338,43,female,1,1,36,Clear_profit_side,3,0,0,0,left,left,left,2,1,1,0.22399999999999998,6,141,277,0.27699999999999997,1.727,0,0,0,0,0
56100d727ffc8a0005811338,43,female,1,1,41,Clear_profit_side,3,0,0,0,left,left,left,2,1,1,0.22,6,141,277,0.27699999999999997,1.727,0,0,0,0,0
56100d727ffc8a0005811338,43,female,1,1,44,Clear_profit_side,3,0,0,0,left,left,left,2,1,1,0.24600000000000002,6,141,277,0.27699999999999997,1.727,0,0,0,0,0
56100d727ffc8a0005811338,43,female,1,1,52,Clear_profit_side,3,0,0,0,left,left,left,2,1,1,0.243,6,141,277,0.27699999999999997,1.727,0,0,0,0,0
56100d727ffc8a0005811338,43,female,1,1,55,Clear_profit_side,3,0,0,0,left,left,left,2,1,1,0.16899999999999998,6,141,277,0.27699999999999997,1.727,0,0,0,0,0
56100d727ffc8a0005811338,43,female,1,1,59,Clear_profit_side,3,0,0,0,left,left,left,2,1,1,0.25,6,141,277,0.27699999999999997,1.727,0,0,0,0,0
56100d727ffc8a0005811338,43,female,1,1,61,Clear_profit_side,3,0,0,0,left,left,left,2,1,1,0.226,6,141,277,0.27699999999999997,1.727,0,0,0,0,0
56100d727ffc8a0005811338,43,female,1,1,86,Clear_profit_side,3,0,0,0,left,left,left,2,1,1,0.242,6,141,277,0.27699999999999997,1.727,0,0,0,0,0
56100d727ffc8a0005811338,43,female,1,1,89,Clear_profit_side,3,0,0,0,left,left,left,2,1,1,0.165,6,141,277,0.27699999999999997,1.727,0,0,0,0,0
56100d727ffc8a0005811338,43,female,1,1,94,Clear_profit_side,3,0,0,0,left,left,left,2,1,1,0.22899999999999998,6,141,277,0.27699999999999997,1.727,0,0,0,0,0
56100d727ffc8a0005811338,43,female,1,1,95,Clear_profit_side,3,0,0,0,left,left,left,2,1,1,0.23800000000000002,6,141,277,0.27699999999999997,1.727,0,0,0,0,0
56100d727ffc8a0005811338,43,female,1,1,97,Clear_profit_side,3,0,0,0,left,left,left,2,1,1,0.226,6,141,277,0.27699999999999997,1.727,0,0,0,0,0
56100d727ffc8a0005811338,43,female,1,2,2,Clear_profit_side,3,0,0,0,left,left,left,2,1,1,0.22399999999999998,7,136,277,0.27699999999999997,1.727,0,0,0,0,1
56100d727ffc8a0005811338,43,female,1,2,5,Clear_profit_side,3,0,0,0,left,left,left,2,1,1,0.235,7,136,277,0.27699999999999997,1.727,0,0,0,0,1
56100d727ffc8a0005811338,43,female,1,2,9,Clear_profit_side,3,0,0,0,left,left,left,2,1,1,0.207,7,136,277,0.27699999999999997,1.727,0,0,0,0,1
56100d727ffc8a0005811338,43,female,1,2,21,Clear_profit_side,3,0,0,0,left,left,right,1,2,0,0.21899999999999997,7,136,277,0.27699999999999997,1.727,1,0,1,0,1
56100d727ffc8a0005811338,43,female,1,2,30,Clear_profit_side,3,0,0,0,left,left,left,2,1,1,0.23600000000000002,7,136,277,0.27699999999999997,1.727,0,0,0,0,1
56100d727ffc8a0005811338,43,female,1,2,31,Clear_profit_side,3,0,0,0,left,left,left,2,1,1,0.24100000000000002,7,136,277,0.27699999999999997,1.727,0,0,0,0,1
56100d727ffc8a0005811338,43,female,1,2,33,Clear_profit_side,3,0,0,0,left,left,left,2,1,1,0.21600000000000005,7,136,277,0.27699999999999997,1.727,0,0,0,0,1
56100d727ffc8a0005811338,43,female,1,2,35,Clear_profit_side,3,0,0,0,left,left,left,2,1,1,0.17800000000000002,7,136,277,0.27699999999999997,1.727,0,0,0,0,1
56100d727ffc8a0005811338,43,female,1,2,41,Clear_profit_side,3,0,0,0,left,left,left,2,1,1,0.23399999999999999,7,136,277,0.27699999999999997,1.727,0,0,0,0,1
56100d727ffc8a0005811338,43,female,1,2,42,Clear_profit_side,3,0,0,0,left,left,left,2,1,1,0.22699999999999998,7,136,277,0.27699999999999997,1.727,0,0,0,0,1
56100d727ffc8a0005811338,43,female,1,2,57,Clear_profit_side,3,0,0,0,left,left,left,2,1,1,0.207,7,136,277,0.27699999999999997,1.727,0,0,0,0,1
56100d727ffc8a0005811338,43,female,1,2,78,Clear_profit_side,3,0,0,0,left,left,left,2,1,1,0.19899999999999998,7,136,277,0.27699999999999997,1.727,0,0,0,0,1
56100d727ffc8a0005811338,43,female,1,2,88,Clear_profit_side,3,0,0,0,left,left,left,2,1,1,0.223,7,136,277,0.27699999999999997,1.727,0,0,0,0,1
56100d727ffc8a0005811338,43,female,1,2,90,Clear_profit_side,3,0,0,0,left,left,left,2,1,1,0.228,7,136,277,0.27699999999999997,1.727,0,0,0,0,1
56100d727ffc8a0005811338,43,female,1,2,94,Clear_profit_side,3,0,0,0,left,left,left,2,1,1,0.213,7,136,277,0.27699999999999997,1.727,0,0,0,0,1
56100d727ffc8a0005811338,43,female,1,2,100,Clear_profit_side,3,0,0,0,left,left,left,2,1,1,0.282,7,136,277,0.27699999999999997,1.727,0,0,0,0,1
578f9f52eeaf6d00018d4f20,30,male,1,1,2,Clear_profit_side,3,0,0,0,left,left,left,2,1,1,0.113,59,200,398,0.39799999999999996,1.848,0,0,0,0,0
578f9f52eeaf6d00018d4f20,30,male,1,1,15,Clear_profit_side,3,0,0,0,left,left,left,2,1,1,3.5039999999999996,59,200,398,0.39799999999999996,1.848,0,0,0,0,0
578f9f52eeaf6d00018d4f20,30,male,1,1,17,Clear_profit_side,3,0,0,0,left,left,left,2,1,1,0.038,59,200,398,0.39799999999999996,1.848,0,0,0,0,0
578f9f52eeaf6d00018d4f20,30,male,1,1,18,Clear_profit_side,3,0,0,0,left,left,left,2,1,1,0.053,59,200,398,0.39799999999999996,1.848,0,0,0,0,0
578f9f52eeaf6d00018d4f20,30,male,1,1,35,Clear_profit_side,3,0,0,0,left,left,left,2,1,1,0.040999999999999995,59,200,398,0.39799999999999996,1.848,0,0,0,0,0
578f9f52eeaf6d00018d4f20,30,male,1,1,36,Clear_profit_side,3,0,0,0,left,left,left,2,1,1,0.026000000000000002,59,200,398,0.39799999999999996,1.848,0,0,0,0,0
578f9f52eeaf6d00018d4f20,30,male,1,1,51,Clear_profit_side,3,0,0,0,left,left,left,2,1,1,0.009000000000000001,59,200,398,0.39799999999999996,1.848,0,0,0,0,0
578f9f52eeaf6d00018d4f20,30,male,1,1,59,Clear_profit_side,3,0,0,0,left,left,left,2,1,1,0.064,59,200,398,0.39799999999999996,1.848,0,0,0,0,0
578f9f52eeaf6d00018d4f20,30,male,1,1,70,Clear_profit_side,3,0,0,0,left,left,left,2,1,1,0.129,59,200,398,0.39799999999999996,1.848,0,0,0,0,0
578f9f52eeaf6d00018d4f20,30,male,1,1,73,Clear_profit_side,3,0,0,0,left,left,left,2,1,1,0.109,59,200,398,0.39799999999999996,1.848,0,0,0,0,0
578f9f52eeaf6d00018d4f20,30,male,1,1,80,Clear_profit_side,3,0,0,0,left,left,left,2,1,1,0.048,59,200,398,0.39799999999999996,1.848,0,0,0,0,0
578f9f52eeaf6d00018d4f20,30,male,1,1,90,Clear_profit_side,3,0,0,0,left,left,left,2,1,1,0.045,59,200,398,0.39799999999999996,1.848,0,0,0,0,0
578f9f52eeaf6d00018d4f20,30,male,1,1,93,Clear_profit_side,3,0,0,0,left,left,left,2,1,1,0.046,59,200,398,0.39799999999999996,1.848,0,0,0,0,0
578f9f52eeaf6d00018d4f20,30,male,1,1,96,Clear_profit_side,3,0,0,0,left,left,left,2,1,1,0.017,59,200,398,0.39799999999999996,1.848,0,0,0,0,0
578f9f52eeaf6d00018d4f20,30,male,1,1,98,Clear_profit_side,3,0,0,0,left,left,left,2,1,1,0.027000000000000003,59,200,398,0.39799999999999996,1.848,0,0,0,0,0
578f9f52eeaf6d00018d4f20,30,male,1,1,100,Clear_profit_side,3,0,0,0,left,left,left,2,1,1,0.017,59,200,398,0.39799999999999996,1.848,0,0,0,0,0
578f9f52eeaf6d00018d4f20,30,male,1,2,5,Clear_profit_side,3,0,0,0,left,left,left,2,1,1,0.037000000000000005,59,198,398,0.39799999999999996,1.848,0,0,0,0,0
578f9f52eeaf6d00018d4f20,30,male,1,2,15,Clear_profit_side,3,0,0,0,left,left,left,2,1,1,0.051,59,198,398,0.39799999999999996,1.848,0,0,0,0,0
578f9f52eeaf6d00018d4f20,30,male,1,2,19,Clear_profit_side,3,0,0,0,left,left,left,2,1,1,0.051,59,198,398,0.39799999999999996,1.848,0,0,0,0,0
578f9f52eeaf6d00018d4f20,30,male,1,2,33,Clear_profit_side,3,0,0,0,left,left,left,2,1,1,0.049,59,198,398,0.39799999999999996,1.848,0,0,0,0,0
578f9f52eeaf6d00018d4f20,30,male,1,2,36,Clear_profit_side,3,0,0,0,left,left,left,2,1,1,0.012,59,198,398,0.39799999999999996,1.848,0,0,0,0,0
578f9f52eeaf6d00018d4f20,30,male,1,2,37,Clear_profit_side,3,0,0,0,left,left,left,2,1,1,0.054000000000000006,59,198,398,0.39799999999999996,1.848,0,0,0,0,0
578f9f52eeaf6d00018d4f20,30,male,1,2,38,Clear_profit_side,3,0,0,0,left,left,left,2,1,1,0.079,59,198,398,0.39799999999999996,1.848,0,0,0,0,0
578f9f52eeaf6d00018d4f20,30,male,1,2,49,Clear_profit_side,3,0,0,0,left,left,left,2,1,1,0.034,59,198,398,0.39799999999999996,1.848,0,0,0,0,0
578f9f52eeaf6d00018d4f20,30,male,1,2,51,Clear_profit_side,3,0,0,0,left,left,left,2,1,1,0.04,59,198,398,0.39799999999999996,1.848,0,0,0,0,0
578f9f52eeaf6d00018d4f20,30,male,1,2,57,Clear_profit_side,3,0,0,0,left,left,left,2,1,1,0.063,59,198,398,0.39799999999999996,1.848,0,0,0,0,0
578f9f52eeaf6d00018d4f20,30,male,1,2,62,Clear_profit_side,3,0,0,0,left,left,left,2,1,1,0.036000000000000004,59,198,398,0.39799999999999996,1.848,0,0,0,0,0
578f9f52eeaf6d00018d4f20,30,male,1,2,67,Clear_profit_side,3,0,0,0,left,left,left,2,1,1,0.077,59,198,398,0.39799999999999996,1.848,0,0,0,0,0
578f9f52eeaf6d00018d4f20,30,male,1,2,83,Clear_profit_side,3,0,0,0,left,left,left,2,1,1,0.018000000000000002,59,198,398,0.39799999999999996,1.848,0,0,0,0,0
578f9f52eeaf6d00018d4f20,30,male,1,2,85,Clear_profit_side,3,0,0,0,left,left,left,2,1,1,0.037000000000000005,59,198,398,0.39799999999999996,1.848,0,0,0,0,0
578f9f52eeaf6d00018d4f20,30,male,1,2,86,Clear_profit_side,3,0,0,0,left,left,left,2,1,1,0.08,59,198,398,0.39799999999999996,1.848,0,0,0,0,0
578f9f52eeaf6d00018d4f20,30,male,1,2,95,Clear_profit_side,3,0,0,0,left,left,left,2,1,1,0.06,59,198,398,0.39799999999999996,1.848,0,0,0,0,0
595bf7acc76e6700014d33fc,52,female,1,1,2,Clear_profit_side,2,10,0,0,left,left,left,20,1,1,0.064,9,642,1170,1.17,2.62,0,0,0,0,0
595bf7acc76e6700014d33fc,52,female,1,1,4,Clear_profit_side,2,10,0,0,left,left,left,20,1,1,0.08199999999999999,9,642,1170,1.17,2.62,0,0,0,0,0
595bf7acc76e6700014d33fc,52,female,1,1,10,Clear_profit_side,2,10,0,0,left,left,left,20,1,1,0.057999999999999996,9,642,1170,1.17,2.62,0,0,0,0,0
595bf7acc76e6700014d33fc,52,female,1,1,14,Clear_profit_side,2,10,0,0,left,left,left,20,1,1,0.07400000000000001,9,642,1170,1.17,2.62,0,0,0,0,0
595bf7acc76e6700014d33fc,52,female,1,1,21,Clear_profit_side,2,10,0,0,left,left,left,20,1,1,0.061,9,642,1170,1.17,2.62,0,0,0,0,0
595bf7acc76e6700014d33fc,52,female,1,1,24,Clear_profit_side,2,10,0,0,left,left,left,20,1,1,0.049,9,642,1170,1.17,2.62,0,0,0,0,0
595bf7acc76e6700014d33fc,52,female,1,1,30,Clear_profit_side,2,10,0,0,left,left,left,20,1,1,0.042,9,642,1170,1.17,2.62,0,0,0,0,0
595bf7acc76e6700014d33fc,52,female,1,1,31,Clear_profit_side,2,10,0,0,left,left,left,20,1,1,0.055,9,642,1170,1.17,2.62,0,0,0,0,0
595bf7acc76e6700014d33fc,52,female,1,1,32,Clear_profit_side,2,10,0,0,left,left,left,20,1,1,0.043,9,642,1170,1.17,2.62,0,0,0,0,0
595bf7acc76e6700014d33fc,52,female,1,1,35,Clear_profit_side,2,10,0,0,left,left,left,20,1,1,0.059000000000000004,9,642,1170,1.17,2.62,0,0,0,0,0
595bf7acc76e6700014d33fc,52,female,1,1,46,Clear_profit_side,2,10,1,180,left,left,left,20,-179,1,0.035,9,642,1170,1.17,2.62,0,0,0,0,0
595bf7acc76e6700014d33fc,52,female,1,1,47,Clear_profit_side,2,10,1,180,left,left,left,20,-179,1,0.053,9,642,1170,1.17,2.62,0,0,0,0,0
595bf7acc76e6700014d33fc,52,female,1,1,56,Clear_profit_side,2,10,0,0,left,left,left,20,1,1,0.055999999999999994,9,642,1170,1.17,2.62,0,0,0,0,0
595bf7acc76e6700014d33fc,52,female,1,1,78,Clear_profit_side,2,10,0,0,left,left,left,20,1,1,0.059000000000000004,9,642,1170,1.17,2.62,0,0,0,0,0
595bf7acc76e6700014d33fc,52,female,1,1,81,Clear_profit_side,2,10,0,0,left,left,left,20,1,1,0.047,9,642,1170,1.17,2.62,0,0,0,0,0
595bf7acc76e6700014d33fc,52,female,1,1,100,Clear_profit_side,2,10,0,0,left,left,left,20,1,1,0.044000000000000004,9,642,1170,1.17,2.62,0,0,0,0,0
595bf7acc76e6700014d33fc,52,female,1,2,4,Clear_profit_side,2,10,0,0,left,left,left,20,1,1,0.049,13,528,1170,1.17,2.62,0,0,0,0,0
595bf7acc76e6700014d33fc,52,female,1,2,11,Clear_profit_side,2,10,0,0,left,left,left,20,1,1,0.040999999999999995,13,528,1170,1.17,2.62,0,0,0,0,0
595bf7acc76e6700014d33fc,52,female,1,2,12,Clear_profit_side,2,10,0,0,left,left,left,20,1,1,0.033,13,528,1170,1.17,2.62,0,0,0,0,0
595bf7acc76e6700014d33fc,52,female,1,2,25,Clear_profit_side,2,10,1,180,left,left,left,20,-179,1,0.083,13,528,1170,1.17,2.62,0,0,0,0,0
595bf7acc76e6700014d33fc,52,female,1,2,32,Clear_profit_side,2,10,0,0,left,left,left,20,1,1,0.068,13,528,1170,1.17,2.62,0,0,0,0,0
595bf7acc76e6700014d33fc,52,female,1,2,35,Clear_profit_side,2,10,1,180,left,left,left,20,-179,1,0.065,13,528,1170,1.17,2.62,0,0,0,0,0
595bf7acc76e6700014d33fc,52,female,1,2,38,Clear_profit_side,2,10,0,0,left,left,left,20,1,1,0.047,13,528,1170,1.17,2.62,0,0,0,0,0
595bf7acc76e6700014d33fc,52,female,1,2,43,Clear_profit_side,2,10,0,0,left,left,left,20,1,1,0.057999999999999996,13,528,1170,1.17,2.62,0,0,0,0,0
595bf7acc76e6700014d33fc,52,female,1,2,50,Clear_profit_side,2,10,0,0,left,left,left,20,1,1,0.026000000000000002,13,528,1170,1.17,2.62,0,0,0,0,0
595bf7acc76e6700014d33fc,52,female,1,2,58,Clear_profit_side,2,10,0,0,left,left,left,20,1,1,0.040999999999999995,13,528,1170,1.17,2.62,0,0,0,0,0
595bf7acc76e6700014d33fc,52,female,1,2,61,Clear_profit_side,2,10,0,0,left,left,left,20,1,1,0.032,13,528,1170,1.17,2.62,0,0,0,0,0
595bf7acc76e6700014d33fc,52,female,1,2,67,Clear_profit_side,2,10,0,0,left,left,left,20,1,1,0.033,13,528,1170,1.17,2.62,0,0,0,0,0
595bf7acc76e6700014d33fc,52,female,1,2,68,Clear_profit_side,2,10,0,0,left,left,left,20,1,1,0.055999999999999994,13,528,1170,1.17,2.62,0,0,0,0,0
595bf7acc76e6700014d33fc,52,female,1,2,74,Clear_profit_side,2,10,0,0,left,left,left,20,1,1,0.028999999999999998,13,528,1170,1.17,2.62,0,0,0,0,0
595bf7acc76e6700014d33fc,52,female,1,2,84,Clear_profit_side,2,10,1,180,left,left,left,20,-179,1,0.035,13,528,1170,1.17,2.62,0,0,0,0,0
595bf7acc76e6700014d33fc,52,female,1,2,90,Clear_profit_side,2,10,0,0,left,left,left,20,1,1,0.044000000000000004,13,528,1170,1.17,2.62,0,0,0,0,0
59e7276d5de9b000017ed1c1,38,male,0,1,6,Clear_profit_side,3,0,0,0,right,right,right,2,1,1,0.48700000000000004,13,152,325,0.325,1.775,0,0,0,0,0
59e7276d5de9b000017ed1c1,38,male,0,1,11,Clear_profit_side,3,0,0,0,right,right,right,2,1,1,0.5479999999999999,13,152,325,0.325,1.775,0,0,0,0,0
59e7276d5de9b000017ed1c1,38,male,0,1,14,Clear_profit_side,3,0,0,0,right,right,right,2,1,1,0.218,13,152,325,0.325,1.775,0,0,0,0,0
59e7276d5de9b000017ed1c1,38,male,0,1,18,Clear_profit_side,3,0,0,0,right,right,right,2,1,1,0.294,13,152,325,0.325,1.775,0,0,0,0,0
59e7276d5de9b000017ed1c1,38,male,0,1,22,Clear_profit_side,3,0,0,0,right,right,right,2,1,1,0.344,13,152,325,0.325,1.775,0,0,0,0,0
59e7276d5de9b000017ed1c1,38,male,0,1,25,Clear_profit_side,3,0,0,0,right,right,right,2,1,1,0.38299999999999995,13,152,325,0.325,1.775,0,0,0,0,0
59e7276d5de9b000017ed1c1,38,male,0,1,26,Clear_profit_side,3,0,0,0,right,right,right,2,1,1,0.633,13,152,325,0.325,1.775,0,0,0,0,0
59e7276d5de9b000017ed1c1,38,male,0,1,31,Clear_profit_side,3,0,0,0,right,right,right,2,1,1,0.275,13,152,325,0.325,1.775,0,0,0,0,0
59e7276d5de9b000017ed1c1,38,male,0,1,35,Clear_profit_side,3,0,0,0,right,right,right,2,1,1,0.245,13,152,325,0.325,1.775,0,0,0,0,0
59e7276d5de9b000017ed1c1,38,male,0,1,70,Clear_profit_side,3,0,0,0,right,right,right,2,1,1,0.34600000000000003,13,152,325,0.325,1.775,0,0,0,0,0
59e7276d5de9b000017ed1c1,38,male,0,1,74,Clear_profit_side,3,0,0,0,right,right,right,2,1,1,0.245,13,152,325,0.325,1.775,0,0,0,0,0
59e7276d5de9b000017ed1c1,38,male,0,1,83,Clear_profit_side,3,0,0,0,right,right,right,2,1,1,0.27399999999999997,13,152,325,0.325,1.775,0,0,0,0,0
59e7276d5de9b000017ed1c1,38,male,0,1,87,Clear_profit_side,3,0,0,0,right,right,right,2,1,1,0.287,13,152,325,0.325,1.775,0,0,0,0,0
59e7276d5de9b000017ed1c1,38,male,0,1,88,Clear_profit_side,3,0,0,0,right,right,right,2,1,1,0.201,13,152,325,0.325,1.775,0,0,0,0,0
59e7276d5de9b000017ed1c1,38,male,0,1,91,Clear_profit_side,3,0,0,0,right,right,right,2,1,1,0.174,13,152,325,0.325,1.775,0,0,0,0,0
59e7276d5de9b000017ed1c1,38,male,0,1,98,Clear_profit_side,3,0,0,0,right,right,right,2,1,1,0.252,13,152,325,0.325,1.775,0,0,0,0,0
59e7276d5de9b000017ed1c1,38,male,0,2,6,Clear_profit_side,3,0,0,0,right,right,right,2,1,1,0.19399999999999998,34,173,325,0.325,1.775,0,0,0,0,0
59e7276d5de9b000017ed1c1,38,male,0,2,7,Clear_profit_side,3,0,0,0,right,right,right,2,1,1,0.272,34,173,325,0.325,1.775,0,0,0,0,0
59e7276d5de9b000017ed1c1,38,male,0,2,11,Clear_profit_side,3,0,0,0,right,right,right,2,1,1,0.225,34,173,325,0.325,1.775,0,0,0,0,0
59e7276d5de9b000017ed1c1,38,male,0,2,16,Clear_profit_side,3,0,0,0,right,right,right,2,1,1,0.21100000000000002,34,173,325,0.325,1.775,0,0,0,0,0
59e7276d5de9b000017ed1c1,38,male,0,2,19,Clear_profit_side,3,0,0,0,right,right,right,2,1,1,0.314,34,173,325,0.325,1.775,0,0,0,0,0
59e7276d5de9b000017ed1c1,38,male,0,2,25,Clear_profit_side,3,0,0,0,right,right,right,2,1,1,0.159,34,173,325,0.325,1.775,0,0,0,0,0
59e7276d5de9b000017ed1c1,38,male,0,2,31,Clear_profit_side,3,0,0,0,right,right,right,2,1,1,0.188,34,173,325,0.325,1.775,0,0,0,0,0
59e7276d5de9b000017ed1c1,38,male,0,2,32,Clear_profit_side,3,0,0,0,right,right,right,2,1,1,0.16,34,173,325,0.325,1.775,0,0,0,0,0
59e7276d5de9b000017ed1c1,38,male,0,2,42,Clear_profit_side,3,0,0,0,right,right,right,2,1,1,0.22,34,173,325,0.325,1.775,0,0,0,0,0
59e7276d5de9b000017ed1c1,38,male,0,2,69,Clear_profit_side,3,0,0,0,right,right,right,2,1,1,0.248,34,173,325,0.325,1.775,0,0,0,0,0
59e7276d5de9b000017ed1c1,38,male,0,2,70,Clear_profit_side,3,0,0,0,right,right,right,2,1,1,0.15,34,173,325,0.325,1.775,0,0,0,0,0
59e7276d5de9b000017ed1c1,38,male,0,2,73,Clear_profit_side,3,0,0,0,right,right,right,2,1,1,0.147,34,173,325,0.325,1.775,0,0,0,0,0
59e7276d5de9b000017ed1c1,38,male,0,2,74,Clear_profit_side,3,0,0,0,right,right,right,2,1,1,0.135,34,173,325,0.325,1.775,0,0,0,0,0
59e7276d5de9b000017ed1c1,38,male,0,2,77,Clear_profit_side,3,0,0,0,right,right,right,2,1,1,0.42200000000000004,34,173,325,0.325,1.775,0,0,0,0,0
59e7276d5de9b000017ed1c1,38,male,0,2,81,Clear_profit_side,3,0,0,0,right,right,right,2,1,1,0.145,34,173,325,0.325,1.775,0,0,0,0,0
59e7276d5de9b000017ed1c1,38,male,0,2,94,Clear_profit_side,3,0,0,0,right,right,right,2,1,1,0.154,34,173,325,0.325,1.775,0,0,0,0,0
5b01842bc573030001c345e0,44,male,1,1,3,Clear_profit_side,1,90,1,20,right,right,right,20,-19,1,0.387,19,784,1597,1.597,3.047,0,0,0,0,0
5b01842bc573030001c345e0,44,male,1,1,6,Clear_profit_side,1,90,1,20,right,right,right,20,-19,1,0.161,19,784,1597,1.597,3.047,0,0,0,0,0
5b01842bc573030001c345e0,44,male,1,1,18,Clear_profit_side,1,90,1,20,right,right,right,20,-19,1,0.071,19,784,1597,1.597,3.047,0,0,0,0,0
5b01842bc573030001c345e0,44,male,1,1,29,Clear_profit_side,1,90,1,20,right,right,right,20,-19,1,0.109,19,784,1597,1.597,3.047,0,0,0,0,0
5b01842bc573030001c345e0,44,male,1,1,39,Clear_profit_side,1,90,1,20,right,right,right,20,-19,1,0.141,19,784,1597,1.597,3.047,0,0,0,0,0
5b01842bc573030001c345e0,44,male,1,1,43,Clear_profit_side,1,90,1,20,right,right,right,20,-19,1,0.109,19,784,1597,1.597,3.047,0,0,0,0,0
5b01842bc573030001c345e0,44,male,1,1,45,Clear_profit_side,1,90,1,20,right,right,right,20,-19,1,0.121,19,784,1597,1.597,3.047,0,0,0,0,0
5b01842bc573030001c345e0,44,male,1,1,46,Clear_profit_side,1,90,1,20,right,right,right,20,-19,1,0.113,19,784,1597,1.597,3.047,0,0,0,0,0
5b01842bc573030001c345e0,44,male,1,1,48,Clear_profit_side,1,90,1,20,right,right,right,20,-19,1,0.071,19,784,1597,1.597,3.047,0,0,0,0,0
5b01842bc573030001c345e0,44,male,1,1,60,Clear_profit_side,1,90,0,0,right,right,right,20,1,1,0.121,19,784,1597,1.597,3.047,0,0,0,0,0
5b01842bc573030001c345e0,44,male,1,1,62,Clear_profit_side,1,90,1,20,right,right,right,20,-19,1,0.11,19,784,1597,1.597,3.047,0,0,0,0,0
5b01842bc573030001c345e0,44,male,1,1,70,Clear_profit_side,1,90,1,20,right,right,right,20,-19,1,0.141,19,784,1597,1.597,3.047,0,0,0,0,0
5b01842bc573030001c345e0,44,male,1,1,72,Clear_profit_side,1,90,1,20,right,right,right,20,-19,1,0.126,19,784,1597,1.597,3.047,0,0,0,0,0
5b01842bc573030001c345e0,44,male,1,1,78,Clear_profit_side,1,90,1,20,right,right,right,20,-19,1,0.125,19,784,1597,1.597,3.047,0,0,0,0,0
5b01842bc573030001c345e0,44,male,1,1,81,Clear_profit_side,1,90,1,20,right,right,right,20,-19,1,0.11699999999999999,19,784,1597,1.597,3.047,0,0,0,0,0
5b01842bc573030001c345e0,44,male,1,1,93,Clear_profit_side,1,90,1,20,right,right,right,20,-19,1,0.135,19,784,1597,1.597,3.047,0,0,0,0,0
5b01842bc573030001c345e0,44,male,1,2,6,Clear_profit_side,1,90,1,20,right,right,right,20,-19,1,0.11900000000000001,10,813,1597,1.597,3.047,0,0,0,0,0
5b01842bc573030001c345e0,44,male,1,2,7,Clear_profit_side,1,90,1,20,right,right,right,20,-19,1,0.14400000000000002,10,813,1597,1.597,3.047,0,0,0,0,0
5b01842bc573030001c345e0,44,male,1,2,20,Clear_profit_side,1,90,0,0,right,right,right,20,1,1,0.11699999999999999,10,813,1597,1.597,3.047,0,0,0,0,0
5b01842bc573030001c345e0,44,male,1,2,37,Clear_profit_side,1,90,1,20,right,right,right,20,-19,1,0.077,10,813,1597,1.597,3.047,0,0,0,0,0
5b01842bc573030001c345e0,44,male,1,2,46,Clear_profit_side,1,90,1,20,right,right,right,20,-19,1,0.125,10,813,1597,1.597,3.047,0,0,0,0,0
5b01842bc573030001c345e0,44,male,1,2,53,Clear_profit_side,1,90,1,20,right,right,right,20,-19,1,0.114,10,813,1597,1.597,3.047,0,0,0,0,0
5b01842bc573030001c345e0,44,male,1,2,54,Clear_profit_side,1,90,1,20,right,right,right,20,-19,1,0.125,10,813,1597,1.597,3.047,0,0,0,0,0
5b01842bc573030001c345e0,44,male,1,2,56,Clear_profit_side,1,90,1,20,right,right,right,20,-19,1,0.10800000000000001,10,813,1597,1.597,3.047,0,0,0,0,0
5b01842bc573030001c345e0,44,male,1,2,57,Clear_profit_side,1,90,1,20,right,right,right,20,-19,1,0.091,10,813,1597,1.597,3.047,0,0,0,0,0
5b01842bc573030001c345e0,44,male,1,2,63,Clear_profit_side,1,90,1,20,right,right,right,20,-19,1,0.105,10,813,1597,1.597,3.047,0,0,0,0,0
5b01842bc573030001c345e0,44,male,1,2,78,Clear_profit_side,1,90,1,20,right,right,right,20,-19,1,0.1,10,813,1597,1.597,3.047,0,0,0,0,0
5b01842bc573030001c345e0,44,male,1,2,79,Clear_profit_side,1,90,0,0,right,right,right,20,1,1,0.252,10,813,1597,1.597,3.047,0,0,0,0,0
5b01842bc573030001c345e0,44,male,1,2,88,Clear_profit_side,1,90,1,20,right,right,right,20,-19,1,0.21,10,813,1597,1.597,3.047,0,0,0,0,0
5b01842bc573030001c345e0,44,male,1,2,89,Clear_profit_side,1,90,1,20,right,right,right,20,-19,1,0.11800000000000001,10,813,1597,1.597,3.047,0,0,0,0,0
5b01842bc573030001c345e0,44,male,1,2,90,Clear_profit_side,1,90,1,20,right,right,right,20,-19,1,0.11199999999999999,10,813,1597,1.597,3.047,0,0,0,0,0
5b01842bc573030001c345e0,44,male,1,2,94,Clear_profit_side,1,90,1,20,right,right,right,20,-19,1,0.11599999999999999,10,813,1597,1.597,3.047,0,0,0,0,0
5c8d2f74e775150016db3700,20,female,0,1,28,Clear_profit_side,1,90,1,20,left,left,left,20,-19,1,0.19699999999999998,5,760,1553,1.5530000000000002,3.003,0,0,0,0,0
5c8d2f74e775150016db3700,20,female,0,1,33,Clear_profit_side,1,90,1,20,left,left,left,20,-19,1,0.19399999999999998,5,760,1553,1.5530000000000002,3.003,0,0,0,0,0
5c8d2f74e775150016db3700,20,female,0,1,34,Clear_profit_side,1,90,1,20,left,left,left,20,-19,1,0.188,5,760,1553,1.5530000000000002,3.003,0,0,0,0,0
5c8d2f74e775150016db3700,20,female,0,1,39,Clear_profit_side,1,90,1,20,left,left,left,20,-19,1,0.16899999999999998,5,760,1553,1.5530000000000002,3.003,0,0,0,0,0
5c8d2f74e775150016db3700,20,female,0,1,40,Clear_profit_side,1,90,1,20,left,left,left,20,-19,1,0.162,5,760,1553,1.5530000000000002,3.003,0,0,0,0,0
5c8d2f74e775150016db3700,20,female,0,1,41,Clear_profit_side,1,90,1,20,left,left,left,20,-19,1,0.168,5,760,1553,1.5530000000000002,3.003,0,0,0,0,0
5c8d2f74e775150016db3700,20,female,0,1,43,Clear_profit_side,1,90,1,20,left,left,left,20,-19,1,0.14400000000000002,5,760,1553,1.5530000000000002,3.003,0,0,0,0,0
5c8d2f74e775150016db3700,20,female,0,1,46,Clear_profit_side,1,90,1,20,left,left,left,20,-19,1,0.154,5,760,1553,1.5530000000000002,3.003,0,0,0,0,0
5c8d2f74e775150016db3700,20,female,0,1,52,Clear_profit_side,1,90,1,20,left,left,left,20,-19,1,0.222,5,760,1553,1.5530000000000002,3.003,0,0,0,0,0
5c8d2f74e775150016db3700,20,female,0,1,56,Clear_profit_side,1,90,1,20,left,left,left,20,-19,1,0.159,5,760,1553,1.5530000000000002,3.003,0,0,0,0,0
5c8d2f74e775150016db3700,20,female,0,1,59,Clear_profit_side,1,90,1,20,left,left,left,20,-19,1,0.15,5,760,1553,1.5530000000000002,3.003,0,0,0,0,0
5c8d2f74e775150016db3700,20,female,0,1,81,Clear_profit_side,1,90,1,20,left,left,left,20,-19,1,0.242,5,760,1553,1.5530000000000002,3.003,0,0,0,0,0
5c8d2f74e775150016db3700,20,female,0,1,82,Clear_profit_side,1,90,1,20,left,left,left,20,-19,1,0.184,5,760,1553,1.5530000000000002,3.003,0,0,0,0,0
5c8d2f74e775150016db3700,20,female,0,1,87,Clear_profit_side,1,90,1,20,left,left,left,20,-19,1,0.18600000000000005,5,760,1553,1.5530000000000002,3.003,0,0,0,0,0
5c8d2f74e775150016db3700,20,female,0,1,94,Clear_profit_side,1,90,1,20,left,left,left,20,-19,1,0.14300000000000002,5,760,1553,1.5530000000000002,3.003,0,0,0,0,0
5c8d2f74e775150016db3700,20,female,0,1,96,Clear_profit_side,1,90,1,20,left,left,left,20,-19,1,0.152,5,760,1553,1.5530000000000002,3.003,0,0,0,0,0
5c8d2f74e775150016db3700,20,female,0,2,12,Clear_profit_side,1,90,1,20,left,left,left,20,-19,1,0.147,10,793,1553,1.5530000000000002,3.003,0,0,0,0,0
5c8d2f74e775150016db3700,20,female,0,2,15,Clear_profit_side,1,90,1,20,left,left,left,20,-19,1,0.134,10,793,1553,1.5530000000000002,3.003,0,0,0,0,0
5c8d2f74e775150016db3700,20,female,0,2,17,Clear_profit_side,1,90,1,20,left,left,left,20,-19,1,0.146,10,793,1553,1.5530000000000002,3.003,0,0,0,0,0
5c8d2f74e775150016db3700,20,female,0,2,26,Clear_profit_side,1,90,1,20,left,left,left,20,-19,1,0.171,10,793,1553,1.5530000000000002,3.003,0,0,0,0,0
5c8d2f74e775150016db3700,20,female,0,2,29,Clear_profit_side,1,90,0,0,left,left,left,20,1,1,0.129,10,793,1553,1.5530000000000002,3.003,0,0,0,0,0
5c8d2f74e775150016db3700,20,female,0,2,30,Clear_profit_side,1,90,0,0,left,left,left,20,1,1,0.147,10,793,1553,1.5530000000000002,3.003,0,0,0,0,0
5c8d2f74e775150016db3700,20,female,0,2,38,Clear_profit_side,1,90,1,20,left,left,left,20,-19,1,0.141,10,793,1553,1.5530000000000002,3.003,0,0,0,0,0
5c8d2f74e775150016db3700,20,female,0,2,40,Clear_profit_side,1,90,1,20,left,left,left,20,-19,1,0.139,10,793,1553,1.5530000000000002,3.003,0,0,0,0,0
5c8d2f74e775150016db3700,20,female,0,2,55,Clear_profit_side,1,90,1,20,left,left,left,20,-19,1,0.157,10,793,1553,1.5530000000000002,3.003,0,0,0,0,0
5c8d2f74e775150016db3700,20,female,0,2,59,Clear_profit_side,1,90,1,20,left,left,left,20,-19,1,0.147,10,793,1553,1.5530000000000002,3.003,0,0,0,0,0
5c8d2f74e775150016db3700,20,female,0,2,68,Clear_profit_side,1,90,0,0,left,left,left,20,1,1,0.132,10,793,1553,1.5530000000000002,3.003,0,0,0,0,0
5c8d2f74e775150016db3700,20,female,0,2,70,Clear_profit_side,1,90,1,20,left,left,left,20,-19,1,0.125,10,793,1553,1.5530000000000002,3.003,0,0,0,0,0
5c8d2f74e775150016db3700,20,female,0,2,72,Clear_profit_side,1,90,1,20,left,left,left,20,-19,1,0.136,10,793,1553,1.5530000000000002,3.003,0,0,0,0,0
5c8d2f74e775150016db3700,20,female,0,2,80,Clear_profit_side,1,90,1,20,left,left,left,20,-19,1,0.153,10,793,1553,1.5530000000000002,3.003,0,0,0,0,0
5c8d2f74e775150016db3700,20,female,0,2,87,Clear_profit_side,1,90,1,20,left,left,left,20,-19,1,0.13699999999999998,10,793,1553,1.5530000000000002,3.003,0,0,0,0,0
5c8d2f74e775150016db3700,20,female,0,2,93,Clear_profit_side,1,90,1,20,left,left,left,20,-19,1,0.188,10,793,1553,1.5530000000000002,3.003,0,0,0,0,0
5c91c01129b394001a4e473b,23,male,1,1,1,Clear_profit_side,3,0,0,0,right,right,left,1,2,0,0.551,8,137,283,0.28300000000000003,1.733,1,1,0,1,0
5c91c01129b394001a4e473b,23,male,1,1,10,Clear_profit_side,3,0,0,0,right,right,right,2,1,1,0.154,8,137,283,0.28300000000000003,1.733,0,0,0,1,0
5c91c01129b394001a4e473b,23,male,1,1,16,Clear_profit_side,3,0,0,0,right,right,right,2,1,1,0.361,8,137,283,0.28300000000000003,1.733,0,0,0,1,0
5c91c01129b394001a4e473b,23,male,1,1,17,Clear_profit_side,3,0,0,0,right,right,right,2,1,1,0.12300000000000001,8,137,283,0.28300000000000003,1.733,0,0,0,1,0
5c91c01129b394001a4e473b,23,male,1,1,19,Clear_profit_side,3,0,0,0,right,right,right,2,1,1,0.152,8,137,283,0.28300000000000003,1.733,0,0,0,1,0
5c91c01129b394001a4e473b,23,male,1,1,29,Clear_profit_side,3,0,0,0,right,right,right,2,1,1,0.107,8,137,283,0.28300000000000003,1.733,0,0,0,1,0
5c91c01129b394001a4e473b,23,male,1,1,32,Clear_profit_side,3,0,0,0,right,right,right,2,1,1,0.107,8,137,283,0.28300000000000003,1.733,0,0,0,1,0
5c91c01129b394001a4e473b,23,male,1,1,45,Clear_profit_side,3,0,0,0,right,right,right,2,1,1,0.11800000000000001,8,137,283,0.28300000000000003,1.733,0,0,0,1,0
5c91c01129b394001a4e473b,23,male,1,1,46,Clear_profit_side,3,0,0,0,right,right,right,2,1,1,0.11599999999999999,8,137,283,0.28300000000000003,1.733,0,0,0,1,0
5c91c01129b394001a4e473b,23,male,1,1,51,Clear_profit_side,3,0,0,0,right,right,right,2,1,1,0.13,8,137,283,0.28300000000000003,1.733,0,0,0,1,0
5c91c01129b394001a4e473b,23,male,1,1,62,Clear_profit_side,3,0,0,0,right,right,right,2,1,1,0.08800000000000001,8,137,283,0.28300000000000003,1.733,0,0,0,1,0
5c91c01129b394001a4e473b,23,male,1,1,76,Clear_profit_side,3,0,0,0,right,right,right,2,1,1,0.305,8,137,283,0.28300000000000003,1.733,0,0,0,1,0
5c91c01129b394001a4e473b,23,male,1,1,78,Clear_profit_side,3,0,0,0,right,right,right,2,1,1,0.12,8,137,283,0.28300000000000003,1.733,0,0,0,1,0
5c91c01129b394001a4e473b,23,male,1,1,79,Clear_profit_side,3,0,0,0,right,right,right,2,1,1,0.10800000000000001,8,137,283,0.28300000000000003,1.733,0,0,0,1,0
5c91c01129b394001a4e473b,23,male,1,1,80,Clear_profit_side,3,0,0,0,right,right,right,2,1,1,0.228,8,137,283,0.28300000000000003,1.733,0,0,0,1,0
5c91c01129b394001a4e473b,23,male,1,1,85,Clear_profit_side,3,0,0,0,right,right,right,2,1,1,0.132,8,137,283,0.28300000000000003,1.733,0,0,0,1,0
5c91c01129b394001a4e473b,23,male,1,2,1,Clear_profit_side,3,0,0,0,right,right,right,2,1,1,0.096,9,146,283,0.28300000000000003,1.733,0,0,0,0,0
5c91c01129b394001a4e473b,23,male,1,2,4,Clear_profit_side,3,0,0,0,right,right,right,2,1,1,0.10300000000000001,9,146,283,0.28300000000000003,1.733,0,0,0,0,0
5c91c01129b394001a4e473b,23,male,1,2,10,Clear_profit_side,3,0,0,0,right,right,right,2,1,1,0.099,9,146,283,0.28300000000000003,1.733,0,0,0,0,0
5c91c01129b394001a4e473b,23,male,1,2,19,Clear_profit_side,3,0,0,0,right,right,right,2,1,1,0.10400000000000001,9,146,283,0.28300000000000003,1.733,0,0,0,0,0
5c91c01129b394001a4e473b,23,male,1,2,28,Clear_profit_side,3,0,0,0,right,right,right,2,1,1,0.10400000000000001,9,146,283,0.28300000000000003,1.733,0,0,0,0,0
5c91c01129b394001a4e473b,23,male,1,2,44,Clear_profit_side,3,0,0,0,right,right,right,2,1,1,0.20199999999999999,9,146,283,0.28300000000000003,1.733,0,0,0,0,0
5c91c01129b394001a4e473b,23,male,1,2,49,Clear_profit_side,3,0,0,0,right,right,right,2,1,1,0.11,9,146,283,0.28300000000000003,1.733,0,0,0,0,0
5c91c01129b394001a4e473b,23,male,1,2,51,Clear_profit_side,3,0,0,0,right,right,right,2,1,1,0.12300000000000001,9,146,283,0.28300000000000003,1.733,0,0,0,0,0
5c91c01129b394001a4e473b,23,male,1,2,59,Clear_profit_side,3,0,0,0,right,right,right,2,1,1,0.11699999999999999,9,146,283,0.28300000000000003,1.733,0,0,0,0,0
5c91c01129b394001a4e473b,23,male,1,2,63,Clear_profit_side,3,0,0,0,right,right,right,2,1,1,0.121,9,146,283,0.28300000000000003,1.733,0,0,0,0,0
5c91c01129b394001a4e473b,23,male,1,2,68,Clear_profit_side,3,0,0,0,right,right,right,2,1,1,0.113,9,146,283,0.28300000000000003,1.733,0,0,0,0,0
5c91c01129b394001a4e473b,23,male,1,2,76,Clear_profit_side,3,0,0,0,right,right,right,2,1,1,0.183,9,146,283,0.28300000000000003,1.733,0,0,0,0,0
5c91c01129b394001a4e473b,23,male,1,2,77,Clear_profit_side,3,0,0,0,right,right,right,2,1,1,0.111,9,146,283,0.28300000000000003,1.733,0,0,0,0,0
5c91c01129b394001a4e473b,23,male,1,2,82,Clear_profit_side,3,0,0,0,right,right,right,2,1,1,0.096,9,146,283,0.28300000000000003,1.733,0,0,0,0,0
5c91c01129b394001a4e473b,23,male,1,2,85,Clear_profit_side,3,0,0,0,right,right,right,2,1,1,0.091,9,146,283,0.28300000000000003,1.733,0,0,0,0,0
5c91c01129b394001a4e473b,23,male,1,2,93,Clear_profit_side,3,0,0,0,right,right,right,2,1,1,0.105,9,146,283,0.28300000000000003,1.733,0,0,0,0,0
5da6a24a5b8ad1001570f6ae,61,female,1,1,4,Clear_profit_side,1,90,1,20,left,left,left,20,-19,1,0.29100000000000004,10,889,1760,1.76,3.21,0,0,0,0,0
5da6a24a5b8ad1001570f6ae,61,female,1,1,6,Clear_profit_side,1,90,1,20,left,left,left,20,-19,1,0.315,10,889,1760,1.76,3.21,0,0,0,0,0
5da6a24a5b8ad1001570f6ae,61,female,1,1,8,Clear_profit_side,1,90,1,20,left,left,left,20,-19,1,0.223,10,889,1760,1.76,3.21,0,0,0,0,0
5da6a24a5b8ad1001570f6ae,61,female,1,1,20,Clear_profit_side,1,90,1,20,left,left,left,20,-19,1,0.243,10,889,1760,1.76,3.21,0,0,0,0,0
5da6a24a5b8ad1001570f6ae,61,female,1,1,28,Clear_profit_side,1,90,1,20,left,left,left,20,-19,1,0.319,10,889,1760,1.76,3.21,0,0,0,0,0
5da6a24a5b8ad1001570f6ae,61,female,1,1,32,Clear_profit_side,1,90,1,20,left,left,left,20,-19,1,0.191,10,889,1760,1.76,3.21,0,0,0,0,0
5da6a24a5b8ad1001570f6ae,61,female,1,1,33,Clear_profit_side,1,90,1,20,left,left,left,20,-19,1,0.16899999999999998,10,889,1760,1.76,3.21,0,0,0,0,0
5da6a24a5b8ad1001570f6ae,61,female,1,1,39,Clear_profit_side,1,90,1,20,left,left,left,20,-19,1,0.24600000000000002,10,889,1760,1.76,3.21,0,0,0,0,0
5da6a24a5b8ad1001570f6ae,61,female,1,1,50,Clear_profit_side,1,90,1,20,left,left,left,20,-19,1,0.33299999999999996,10,889,1760,1.76,3.21,0,0,0,0,0
5da6a24a5b8ad1001570f6ae,61,female,1,1,56,Clear_profit_side,1,90,1,20,left,left,left,20,-19,1,0.26899999999999996,10,889,1760,1.76,3.21,0,0,0,0,0
5da6a24a5b8ad1001570f6ae,61,female,1,1,57,Clear_profit_side,1,90,1,20,left,left,left,20,-19,1,0.20600000000000002,10,889,1760,1.76,3.21,0,0,0,0,0
5da6a24a5b8ad1001570f6ae,61,female,1,1,59,Clear_profit_side,1,90,1,20,left,left,left,20,-19,1,0.335,10,889,1760,1.76,3.21,0,0,0,0,0
5da6a24a5b8ad1001570f6ae,61,female,1,1,76,Clear_profit_side,1,90,0,0,left,left,left,20,1,1,0.256,10,889,1760,1.76,3.21,0,0,0,0,0
5da6a24a5b8ad1001570f6ae,61,female,1,1,82,Clear_profit_side,1,90,1,20,left,left,left,20,-19,1,0.23600000000000002,10,889,1760,1.76,3.21,0,0,0,0,0
5da6a24a5b8ad1001570f6ae,61,female,1,1,83,Clear_profit_side,1,90,1,20,left,left,left,20,-19,1,0.2,10,889,1760,1.76,3.21,0,0,0,0,0
5da6a24a5b8ad1001570f6ae,61,female,1,1,96,Clear_profit_side,1,90,1,20,left,left,left,20,-19,1,0.214,10,889,1760,1.76,3.21,0,0,0,0,0
5da6a24a5b8ad1001570f6ae,61,female,1,2,19,Clear_profit_side,1,90,1,20,left,left,left,20,-19,1,0.364,10,871,1760,1.76,3.21,0,0,0,0,0
5da6a24a5b8ad1001570f6ae,61,female,1,2,39,Clear_profit_side,1,90,1,20,left,left,left,20,-19,1,0.318,10,871,1760,1.76,3.21,0,0,0,0,0
5da6a24a5b8ad1001570f6ae,61,female,1,2,49,Clear_profit_side,1,90,1,20,left,left,left,20,-19,1,0.267,10,871,1760,1.76,3.21,0,0,0,0,0
5da6a24a5b8ad1001570f6ae,61,female,1,2,51,Clear_profit_side,1,90,1,20,left,left,left,20,-19,1,0.294,10,871,1760,1.76,3.21,0,0,0,0,0
5da6a24a5b8ad1001570f6ae,61,female,1,2,52,Clear_profit_side,1,90,1,20,left,left,left,20,-19,1,0.215,10,871,1760,1.76,3.21,0,0,0,0,0
5da6a24a5b8ad1001570f6ae,61,female,1,2,65,Clear_profit_side,1,90,1,20,left,left,left,20,-19,1,0.17300000000000001,10,871,1760,1.76,3.21,0,0,0,0,0
5da6a24a5b8ad1001570f6ae,61,female,1,2,68,Clear_profit_side,1,90,1,20,left,left,left,20,-19,1,0.5329999999999999,10,871,1760,1.76,3.21,0,0,0,0,0
5da6a24a5b8ad1001570f6ae,61,female,1,2,70,Clear_profit_side,1,90,1,20,left,left,left,20,-19,1,0.391,10,871,1760,1.76,3.21,0,0,0,0,0
5da6a24a5b8ad1001570f6ae,61,female,1,2,73,Clear_profit_side,1,90,1,20,left,left,left,20,-19,1,0.221,10,871,1760,1.76,3.21,0,0,0,0,0
5da6a24a5b8ad1001570f6ae,61,female,1,2,78,Clear_profit_side,1,90,1,20,left,left,left,20,-19,1,0.233,10,871,1760,1.76,3.21,0,0,0,0,0
5da6a24a5b8ad1001570f6ae,61,female,1,2,84,Clear_profit_side,1,90,1,20,left,left,left,20,-19,1,0.222,10,871,1760,1.76,3.21,0,0,0,0,0
5da6a24a5b8ad1001570f6ae,61,female,1,2,88,Clear_profit_side,1,90,1,20,left,left,left,20,-19,1,0.226,10,871,1760,1.76,3.21,0,0,0,0,0
5da6a24a5b8ad1001570f6ae,61,female,1,2,89,Clear_profit_side,1,90,1,20,left,left,left,20,-19,1,0.179,10,871,1760,1.76,3.21,0,0,0,0,0
5da6a24a5b8ad1001570f6ae,61,female,1,2,90,Clear_profit_side,1,90,1,20,left,left,left,20,-19,1,0.19,10,871,1760,1.76,3.21,0,0,0,0,0
5da6a24a5b8ad1001570f6ae,61,female,1,2,93,Clear_profit_side,1,90,1,20,left,left,left,20,-19,1,0.203,10,871,1760,1.76,3.21,0,0,0,0,0
5da6a24a5b8ad1001570f6ae,61,female,1,2,99,Clear_profit_side,1,90,1,20,left,left,left,20,-19,1,0.345,10,871,1760,1.76,3.21,0,0,0,0,0
5ddaf4f37aa0d6a6c2c53af6,27,female,1,1,3,Clear_profit_side,2,10,0,0,left,left,left,20,1,1,0.08,25,738,1409,1.409,2.859,0,0,0,0,0
5ddaf4f37aa0d6a6c2c53af6,27,female,1,1,10,Clear_profit_side,2,10,0,0,left,left,left,20,1,1,0.063,25,738,1409,1.409,2.859,0,0,0,0,0
5ddaf4f37aa0d6a6c2c53af6,27,female,1,1,13,Clear_profit_side,2,10,0,0,left,left,left,20,1,1,0.073,25,738,1409,1.409,2.859,0,0,0,0,0
5ddaf4f37aa0d6a6c2c53af6,27,female,1,1,19,Clear_profit_side,2,10,0,0,left,left,left,20,1,1,0.084,25,738,1409,1.409,2.859,0,0,0,0,0
5ddaf4f37aa0d6a6c2c53af6,27,female,1,1,33,Clear_profit_side,2,10,0,0,left,left,left,20,1,1,0.055,25,738,1409,1.409,2.859,0,0,0,0,0
5ddaf4f37aa0d6a6c2c53af6,27,female,1,1,39,Clear_profit_side,2,10,0,0,left,left,left,20,1,1,0.059000000000000004,25,738,1409,1.409,2.859,0,0,0,0,0
5ddaf4f37aa0d6a6c2c53af6,27,female,1,1,49,Clear_profit_side,2,10,0,0,left,left,left,20,1,1,0.047,25,738,1409,1.409,2.859,0,0,0,0,0
5ddaf4f37aa0d6a6c2c53af6,27,female,1,1,53,Clear_profit_side,2,10,0,0,left,left,left,20,1,1,0.07,25,738,1409,1.409,2.859,0,0,0,0,0
5ddaf4f37aa0d6a6c2c53af6,27,female,1,1,55,Clear_profit_side,2,10,0,0,left,left,left,20,1,1,0.022000000000000002,25,738,1409,1.409,2.859,0,0,0,0,0
5ddaf4f37aa0d6a6c2c53af6,27,female,1,1,60,Clear_profit_side,2,10,0,0,left,left,left,20,1,1,0.044000000000000004,25,738,1409,1.409,2.859,0,0,0,0,0
5ddaf4f37aa0d6a6c2c53af6,27,female,1,1,62,Clear_profit_side,2,10,0,0,left,left,left,20,1,1,0.9670000000000001,25,738,1409,1.409,2.859,0,0,0,0,0
5ddaf4f37aa0d6a6c2c53af6,27,female,1,1,79,Clear_profit_side,2,10,0,0,left,left,left,20,1,1,0.057,25,738,1409,1.409,2.859,0,0,0,0,0
5ddaf4f37aa0d6a6c2c53af6,27,female,1,1,91,Clear_profit_side,2,10,0,0,left,left,left,20,1,1,0.064,25,738,1409,1.409,2.859,0,0,0,0,0
5ddaf4f37aa0d6a6c2c53af6,27,female,1,1,92,Clear_profit_side,2,10,0,0,left,left,left,20,1,1,0.139,25,738,1409,1.409,2.859,0,0,0,0,0
5ddaf4f37aa0d6a6c2c53af6,27,female,1,1,96,Clear_profit_side,2,10,0,0,left,left,left,20,1,1,0.042,25,738,1409,1.409,2.859,0,0,0,0,0
5ddaf4f37aa0d6a6c2c53af6,27,female,1,1,98,Clear_profit_side,2,10,0,0,left,left,left,20,1,1,0.053,25,738,1409,1.409,2.859,0,0,0,0,0
5ddaf4f37aa0d6a6c2c53af6,27,female,1,2,1,Clear_profit_side,2,10,0,0,left,left,left,20,1,1,0.051,14,671,1409,1.409,2.859,0,0,0,0,1
5ddaf4f37aa0d6a6c2c53af6,27,female,1,2,3,Clear_profit_side,2,10,0,0,left,left,left,20,1,1,0.043,14,671,1409,1.409,2.859,0,0,0,0,1
5ddaf4f37aa0d6a6c2c53af6,27,female,1,2,6,Clear_profit_side,2,10,0,0,left,left,left,20,1,1,0.05,14,671,1409,1.409,2.859,0,0,0,0,1
5ddaf4f37aa0d6a6c2c53af6,27,female,1,2,24,Clear_profit_side,2,10,0,0,left,left,left,20,1,1,0.051,14,671,1409,1.409,2.859,0,0,0,0,1
5ddaf4f37aa0d6a6c2c53af6,27,female,1,2,25,Clear_profit_side,2,10,0,0,left,left,left,20,1,1,0.047,14,671,1409,1.409,2.859,0,0,0,0,1
5ddaf4f37aa0d6a6c2c53af6,27,female,1,2,26,Clear_profit_side,2,10,0,0,left,left,left,20,1,1,0.132,14,671,1409,1.409,2.859,0,0,0,0,1
5ddaf4f37aa0d6a6c2c53af6,27,female,1,2,35,Clear_profit_side,2,10,0,0,left,left,left,20,1,1,0.11900000000000001,14,671,1409,1.409,2.859,0,0,0,0,1
5ddaf4f37aa0d6a6c2c53af6,27,female,1,2,43,Clear_profit_side,2,10,0,0,left,left,left,20,1,1,0.05,14,671,1409,1.409,2.859,0,0,0,0,1
5ddaf4f37aa0d6a6c2c53af6,27,female,1,2,66,Clear_profit_side,2,10,0,0,left,left,left,20,1,1,0.08199999999999999,14,671,1409,1.409,2.859,0,0,0,0,1
5ddaf4f37aa0d6a6c2c53af6,27,female,1,2,70,Clear_profit_side,2,10,0,0,left,left,left,20,1,1,0.037000000000000005,14,671,1409,1.409,2.859,0,0,0,0,1
5ddaf4f37aa0d6a6c2c53af6,27,female,1,2,74,Clear_profit_side,2,10,0,0,left,left,left,20,1,1,0.076,14,671,1409,1.409,2.859,0,0,0,0,1
5ddaf4f37aa0d6a6c2c53af6,27,female,1,2,76,Clear_profit_side,2,10,0,0,left,left,left,20,1,1,0.05,14,671,1409,1.409,2.859,0,0,0,0,1
5ddaf4f37aa0d6a6c2c53af6,27,female,1,2,77,Clear_profit_side,2,10,0,0,left,left,right,1,20,0,0.065,14,671,1409,1.409,2.859,1,0,1,0,1
5ddaf4f37aa0d6a6c2c53af6,27,female,1,2,79,Clear_profit_side,2,10,0,0,left,left,left,20,1,1,0.057,14,671,1409,1.409,2.859,0,0,0,0,1
5ddaf4f37aa0d6a6c2c53af6,27,female,1,2,87,Clear_profit_side,2,10,1,180,left,left,left,20,-179,1,0.047,14,671,1409,1.409,2.859,0,0,0,0,1
5ddaf4f37aa0d6a6c2c53af6,27,female,1,2,95,Clear_profit_side,2,10,0,0,left,left,left,20,1,1,0.053,14,671,1409,1.409,2.859,0,0,0,0,1
5e3974014e49b0000aea3d11,21,female,1,1,4,Clear_profit_side,3,0,0,0,right,right,right,2,1,1,0.17,17,158,320,0.32,1.77,0,0,0,0,0
5e3974014e49b0000aea3d11,21,female,1,1,14,Clear_profit_side,3,0,0,0,right,right,right,2,1,1,0.151,17,158,320,0.32,1.77,0,0,0,0,0
5e3974014e49b0000aea3d11,21,female,1,1,17,Clear_profit_side,3,0,0,0,right,right,right,2,1,1,0.14800000000000002,17,158,320,0.32,1.77,0,0,0,0,0
5e3974014e49b0000aea3d11,21,female,1,1,19,Clear_profit_side,3,0,0,0,right,right,right,2,1,1,0.12,17,158,320,0.32,1.77,0,0,0,0,0
5e3974014e49b0000aea3d11,21,female,1,1,28,Clear_profit_side,3,0,0,0,right,right,right,2,1,1,0.1,17,158,320,0.32,1.77,0,0,0,0,0
5e3974014e49b0000aea3d11,21,female,1,1,29,Clear_profit_side,3,0,0,0,right,right,right,2,1,1,0.08800000000000001,17,158,320,0.32,1.77,0,0,0,0,0
5e3974014e49b0000aea3d11,21,female,1,1,32,Clear_profit_side,3,0,0,0,right,right,right,2,1,1,0.106,17,158,320,0.32,1.77,0,0,0,0,0
5e3974014e49b0000aea3d11,21,female,1,1,33,Clear_profit_side,3,0,0,0,right,right,right,2,1,1,0.075,17,158,320,0.32,1.77,0,0,0,0,0
5e3974014e49b0000aea3d11,21,female,1,1,38,Clear_profit_side,3,0,0,0,right,right,right,2,1,1,0.10800000000000001,17,158,320,0.32,1.77,0,0,0,0,0
5e3974014e49b0000aea3d11,21,female,1,1,52,Clear_profit_side,3,0,0,0,right,right,right,2,1,1,0.126,17,158,320,0.32,1.77,0,0,0,0,0
5e3974014e49b0000aea3d11,21,female,1,1,55,Clear_profit_side,3,0,0,0,right,right,right,2,1,1,0.099,17,158,320,0.32,1.77,0,0,0,0,0
5e3974014e49b0000aea3d11,21,female,1,1,63,Clear_profit_side,3,0,0,0,right,right,right,2,1,1,0.046,17,158,320,0.32,1.77,0,0,0,0,0
5e3974014e49b0000aea3d11,21,female,1,1,64,Clear_profit_side,3,0,0,0,right,right,right,2,1,1,0.078,17,158,320,0.32,1.77,0,0,0,0,0
5e3974014e49b0000aea3d11,21,female,1,1,74,Clear_profit_side,3,0,0,0,right,right,right,2,1,1,0.08,17,158,320,0.32,1.77,0,0,0,0,0
5e3974014e49b0000aea3d11,21,female,1,1,89,Clear_profit_side,3,0,0,0,right,right,right,2,1,1,0.096,17,158,320,0.32,1.77,0,0,0,0,0
5e3974014e49b0000aea3d11,21,female,1,1,96,Clear_profit_side,3,0,0,0,right,right,right,2,1,1,0.077,17,158,320,0.32,1.77,0,0,0,0,0
5e3974014e49b0000aea3d11,21,female,1,2,1,Clear_profit_side,3,0,0,0,right,right,right,2,1,1,0.073,21,162,320,0.32,1.77,0,0,0,0,0
5e3974014e49b0000aea3d11,21,female,1,2,21,Clear_profit_side,3,0,0,0,right,right,right,2,1,1,0.086,21,162,320,0.32,1.77,0,0,0,0,0
5e3974014e49b0000aea3d11,21,female,1,2,26,Clear_profit_side,3,0,0,0,right,right,right,2,1,1,0.06,21,162,320,0.32,1.77,0,0,0,0,0
5e3974014e49b0000aea3d11,21,female,1,2,29,Clear_profit_side,3,0,0,0,right,right,right,2,1,1,0.054000000000000006,21,162,320,0.32,1.77,0,0,0,0,0
5e3974014e49b0000aea3d11,21,female,1,2,31,Clear_profit_side,3,0,0,0,right,right,right,2,1,1,0.081,21,162,320,0.32,1.77,0,0,0,0,0
5e3974014e49b0000aea3d11,21,female,1,2,36,Clear_profit_side,3,0,0,0,right,right,right,2,1,1,0.10300000000000001,21,162,320,0.32,1.77,0,0,0,0,0
5e3974014e49b0000aea3d11,21,female,1,2,41,Clear_profit_side,3,0,0,0,right,right,right,2,1,1,0.055999999999999994,21,162,320,0.32,1.77,0,0,0,0,0
5e3974014e49b0000aea3d11,21,female,1,2,42,Clear_profit_side,3,0,0,0,right,right,right,2,1,1,0.07200000000000001,21,162,320,0.32,1.77,0,0,0,0,0
5e3974014e49b0000aea3d11,21,female,1,2,50,Clear_profit_side,3,0,0,0,right,right,right,2,1,1,0.087,21,162,320,0.32,1.77,0,0,0,0,0
5e3974014e49b0000aea3d11,21,female,1,2,71,Clear_profit_side,3,0,0,0,right,right,right,2,1,1,0.08199999999999999,21,162,320,0.32,1.77,0,0,0,0,0
5e3974014e49b0000aea3d11,21,female,1,2,72,Clear_profit_side,3,0,0,0,right,right,right,2,1,1,0.05,21,162,320,0.32,1.77,0,0,0,0,0
5e3974014e49b0000aea3d11,21,female,1,2,73,Clear_profit_side,3,0,0,0,right,right,right,2,1,1,0.085,21,162,320,0.32,1.77,0,0,0,0,0
5e3974014e49b0000aea3d11,21,female,1,2,74,Clear_profit_side,3,0,0,0,right,right,right,2,1,1,0.07400000000000001,21,162,320,0.32,1.77,0,0,0,0,0
5e3974014e49b0000aea3d11,21,female,1,2,79,Clear_profit_side,3,0,0,0,right,right,right,2,1,1,0.092,21,162,320,0.32,1.77,0,0,0,0,0
5e3974014e49b0000aea3d11,21,female,1,2,80,Clear_profit_side,3,0,0,0,right,right,right,2,1,1,0.049,21,162,320,0.32,1.77,0,0,0,0,0
5e3974014e49b0000aea3d11,21,female,1,2,82,Clear_profit_side,3,0,0,0,right,right,right,2,1,1,0.16899999999999998,21,162,320,0.32,1.77,0,0,0,0,0
5e760b4d39c441170d9c9f1b,27,female,1,1,2,Clear_profit_side,2,10,0,0,right,right,right,20,1,1,0.068,9,434,1313,1.3129999999999995,2.763,0,0,0,0,0
5e760b4d39c441170d9c9f1b,27,female,1,1,13,Clear_profit_side,2,10,1,180,right,right,right,20,-179,1,0.059000000000000004,9,434,1313,1.3129999999999995,2.763,0,0,0,0,0
5e760b4d39c441170d9c9f1b,27,female,1,1,21,Clear_profit_side,2,10,0,0,right,right,right,20,1,1,0.048,9,434,1313,1.3129999999999995,2.763,0,0,0,0,0
5e760b4d39c441170d9c9f1b,27,female,1,1,24,Clear_profit_side,2,10,0,0,right,right,right,20,1,1,0.055,9,434,1313,1.3129999999999995,2.763,0,0,0,0,0
5e760b4d39c441170d9c9f1b,27,female,1,1,41,Clear_profit_side,2,10,0,0,right,right,right,20,1,1,0.051,9,434,1313,1.3129999999999995,2.763,0,0,0,0,0
5e760b4d39c441170d9c9f1b,27,female,1,1,43,Clear_profit_side,2,10,0,0,right,right,right,20,1,1,0.057,9,434,1313,1.3129999999999995,2.763,0,0,0,0,0
5e760b4d39c441170d9c9f1b,27,female,1,1,45,Clear_profit_side,2,10,0,0,right,right,right,20,1,1,0.08199999999999999,9,434,1313,1.3129999999999995,2.763,0,0,0,0,0
5e760b4d39c441170d9c9f1b,27,female,1,1,49,Clear_profit_side,2,10,0,0,right,right,right,20,1,1,0.078,9,434,1313,1.3129999999999995,2.763,0,0,0,0,0
5e760b4d39c441170d9c9f1b,27,female,1,1,51,Clear_profit_side,2,10,0,0,right,right,right,20,1,1,0.055999999999999994,9,434,1313,1.3129999999999995,2.763,0,0,0,0,0
5e760b4d39c441170d9c9f1b,27,female,1,1,58,Clear_profit_side,2,10,0,0,right,right,right,20,1,1,0.06,9,434,1313,1.3129999999999995,2.763,0,0,0,0,0
5e760b4d39c441170d9c9f1b,27,female,1,1,63,Clear_profit_side,2,10,0,0,right,right,right,20,1,1,0.054000000000000006,9,434,1313,1.3129999999999995,2.763,0,0,0,0,0
5e760b4d39c441170d9c9f1b,27,female,1,1,66,Clear_profit_side,2,10,1,180,right,right,right,20,-179,1,0.055999999999999994,9,434,1313,1.3129999999999995,2.763,0,0,0,0,0
5e760b4d39c441170d9c9f1b,27,female,1,1,70,Clear_profit_side,2,10,0,0,right,right,right,20,1,1,0.07400000000000001,9,434,1313,1.3129999999999995,2.763,0,0,0,0,0
5e760b4d39c441170d9c9f1b,27,female,1,1,73,Clear_profit_side,2,10,1,180,right,right,right,20,-179,1,0.054000000000000006,9,434,1313,1.3129999999999995,2.763,0,0,0,0,0
5e760b4d39c441170d9c9f1b,27,female,1,1,95,Clear_profit_side,2,10,0,0,right,right,right,20,1,1,0.10400000000000001,9,434,1313,1.3129999999999995,2.763,0,0,0,0,0
5e760b4d39c441170d9c9f1b,27,female,1,1,98,Clear_profit_side,2,10,1,180,right,right,right,20,-179,1,0.046,9,434,1313,1.3129999999999995,2.763,0,0,0,0,0
5e760b4d39c441170d9c9f1b,27,female,1,2,4,Clear_profit_side,2,10,1,180,right,right,right,20,-179,1,0.06,6,879,1313,1.3129999999999995,2.763,0,0,0,0,0
5e760b4d39c441170d9c9f1b,27,female,1,2,5,Clear_profit_side,2,10,0,0,right,right,right,20,1,1,0.1,6,879,1313,1.3129999999999995,2.763,0,0,0,0,0
5e760b4d39c441170d9c9f1b,27,female,1,2,6,Clear_profit_side,2,10,1,180,right,right,right,20,-179,1,0.059000000000000004,6,879,1313,1.3129999999999995,2.763,0,0,0,0,0
5e760b4d39c441170d9c9f1b,27,female,1,2,10,Clear_profit_side,2,10,0,0,right,right,right,20,1,1,0.051,6,879,1313,1.3129999999999995,2.763,0,0,0,0,0
5e760b4d39c441170d9c9f1b,27,female,1,2,19,Clear_profit_side,2,10,0,0,right,right,right,20,1,1,0.053,6,879,1313,1.3129999999999995,2.763,0,0,0,0,0
5e760b4d39c441170d9c9f1b,27,female,1,2,23,Clear_profit_side,2,10,0,0,right,right,right,20,1,1,0.064,6,879,1313,1.3129999999999995,2.763,0,0,0,0,0
5e760b4d39c441170d9c9f1b,27,female,1,2,44,Clear_profit_side,2,10,0,0,right,right,right,20,1,1,0.049,6,879,1313,1.3129999999999995,2.763,0,0,0,0,0
5e760b4d39c441170d9c9f1b,27,female,1,2,57,Clear_profit_side,2,10,0,0,right,right,right,20,1,1,0.084,6,879,1313,1.3129999999999995,2.763,0,0,0,0,0
5e760b4d39c441170d9c9f1b,27,female,1,2,62,Clear_profit_side,2,10,0,0,right,right,right,20,1,1,0.05,6,879,1313,1.3129999999999995,2.763,0,0,0,0,0
5e760b4d39c441170d9c9f1b,27,female,1,2,72,Clear_profit_side,2,10,0,0,right,right,right,20,1,1,0.053,6,879,1313,1.3129999999999995,2.763,0,0,0,0,0
5e760b4d39c441170d9c9f1b,27,female,1,2,75,Clear_profit_side,2,10,0,0,right,right,right,20,1,1,0.054000000000000006,6,879,1313,1.3129999999999995,2.763,0,0,0,0,0
5e760b4d39c441170d9c9f1b,27,female,1,2,78,Clear_profit_side,2,10,1,180,right,right,right,20,-179,1,0.067,6,879,1313,1.3129999999999995,2.763,0,0,0,0,0
5e760b4d39c441170d9c9f1b,27,female,1,2,83,Clear_profit_side,2,10,0,0,right,right,right,20,1,1,0.09,6,879,1313,1.3129999999999995,2.763,0,0,0,0,0
5e760b4d39c441170d9c9f1b,27,female,1,2,85,Clear_profit_side,2,10,0,0,right,right,right,20,1,1,0.055999999999999994,6,879,1313,1.3129999999999995,2.763,0,0,0,0,0
5e760b4d39c441170d9c9f1b,27,female,1,2,91,Clear_profit_side,2,10,0,0,right,right,right,20,1,1,0.048,6,879,1313,1.3129999999999995,2.763,0,0,0,0,0
5e760b4d39c441170d9c9f1b,27,female,1,2,92,Clear_profit_side,2,10,0,0,right,right,right,20,1,1,0.051,6,879,1313,1.3129999999999995,2.763,0,0,0,0,0
5e91d94b473d044febfef650,18,male,1,1,4,Clear_profit_side,3,0,0,0,left,left,left,2,1,1,0.217,19,150,291,0.29100000000000004,1.741,0,0,0,1,0
5e91d94b473d044febfef650,18,male,1,1,5,Clear_profit_side,3,0,0,0,left,left,left,2,1,1,0.21600000000000005,19,150,291,0.29100000000000004,1.741,0,0,0,1,0
5e91d94b473d044febfef650,18,male,1,1,14,Clear_profit_side,3,0,0,0,left,left,left,2,1,1,0.179,19,150,291,0.29100000000000004,1.741,0,0,0,1,0
5e91d94b473d044febfef650,18,male,1,1,15,Clear_profit_side,3,0,0,0,left,left,left,2,1,1,0.193,19,150,291,0.29100000000000004,1.741,0,0,0,1,0
5e91d94b473d044febfef650,18,male,1,1,32,Clear_profit_side,3,0,0,0,left,left,left,2,1,1,0.147,19,150,291,0.29100000000000004,1.741,0,0,0,1,0
5e91d94b473d044febfef650,18,male,1,1,34,Clear_profit_side,3,0,0,0,left,left,left,2,1,1,0.168,19,150,291,0.29100000000000004,1.741,0,0,0,1,0
5e91d94b473d044febfef650,18,male,1,1,52,Clear_profit_side,3,0,0,0,left,left,left,2,1,1,0.16699999999999998,19,150,291,0.29100000000000004,1.741,0,0,0,1,0
5e91d94b473d044febfef650,18,male,1,1,53,Clear_profit_side,3,0,0,0,left,left,right,1,2,0,0.154,19,150,291,0.29100000000000004,1.741,1,1,0,1,0
5e91d94b473d044febfef650,18,male,1,1,54,Clear_profit_side,3,0,0,0,left,left,left,2,1,1,0.111,19,150,291,0.29100000000000004,1.741,0,0,0,1,0
5e91d94b473d044febfef650,18,male,1,1,55,Clear_profit_side,3,0,0,0,left,left,left,2,1,1,0.166,19,150,291,0.29100000000000004,1.741,0,0,0,1,0
5e91d94b473d044febfef650,18,male,1,1,63,Clear_profit_side,3,0,0,0,left,left,left,2,1,1,0.11599999999999999,19,150,291,0.29100000000000004,1.741,0,0,0,1,0
5e91d94b473d044febfef650,18,male,1,1,73,Clear_profit_side,3,0,0,0,left,left,left,2,1,1,0.127,19,150,291,0.29100000000000004,1.741,0,0,0,1,0
5e91d94b473d044febfef650,18,male,1,1,74,Clear_profit_side,3,0,0,0,left,left,left,2,1,1,0.146,19,150,291,0.29100000000000004,1.741,0,0,0,1,0
5e91d94b473d044febfef650,18,male,1,1,76,Clear_profit_side,3,0,0,0,left,left,left,2,1,1,0.539,19,150,291,0.29100000000000004,1.741,0,0,0,1,0
5e91d94b473d044febfef650,18,male,1,1,89,Clear_profit_side,3,0,0,0,left,left,left,2,1,1,0.132,19,150,291,0.29100000000000004,1.741,0,0,0,1,0
5e91d94b473d044febfef650,18,male,1,1,90,Clear_profit_side,3,0,0,0,left,left,left,2,1,1,0.147,19,150,291,0.29100000000000004,1.741,0,0,0,1,0
5e91d94b473d044febfef650,18,male,1,2,4,Clear_profit_side,3,0,0,0,left,left,left,2,1,1,0.10300000000000001,12,141,291,0.29100000000000004,1.741,0,0,0,0,0
5e91d94b473d044febfef650,18,male,1,2,9,Clear_profit_side,3,0,0,0,left,left,left,2,1,1,0.125,12,141,291,0.29100000000000004,1.741,0,0,0,0,0
5e91d94b473d044febfef650,18,male,1,2,13,Clear_profit_side,3,0,0,0,left,left,left,2,1,1,0.128,12,141,291,0.29100000000000004,1.741,0,0,0,0,0
5e91d94b473d044febfef650,18,male,1,2,19,Clear_profit_side,3,0,0,0,left,left,left,2,1,1,0.11800000000000001,12,141,291,0.29100000000000004,1.741,0,0,0,0,0
5e91d94b473d044febfef650,18,male,1,2,27,Clear_profit_side,3,0,0,0,left,left,left,2,1,1,0.11599999999999999,12,141,291,0.29100000000000004,1.741,0,0,0,0,0
5e91d94b473d044febfef650,18,male,1,2,47,Clear_profit_side,3,0,0,0,left,left,left,2,1,1,0.11900000000000001,12,141,291,0.29100000000000004,1.741,0,0,0,0,0
5e91d94b473d044febfef650,18,male,1,2,49,Clear_profit_side,3,0,0,0,left,left,left,2,1,1,0.114,12,141,291,0.29100000000000004,1.741,0,0,0,0,0
5e91d94b473d044febfef650,18,male,1,2,50,Clear_profit_side,3,0,0,0,left,left,left,2,1,1,0.149,12,141,291,0.29100000000000004,1.741,0,0,0,0,0
5e91d94b473d044febfef650,18,male,1,2,57,Clear_profit_side,3,0,0,0,left,left,left,2,1,1,0.14300000000000002,12,141,291,0.29100000000000004,1.741,0,0,0,0,0
5e91d94b473d044febfef650,18,male,1,2,59,Clear_profit_side,3,0,0,0,left,left,left,2,1,1,0.39299999999999996,12,141,291,0.29100000000000004,1.741,0,0,0,0,0
5e91d94b473d044febfef650,18,male,1,2,69,Clear_profit_side,3,0,0,0,left,left,left,2,1,1,0.129,12,141,291,0.29100000000000004,1.741,0,0,0,0,0
5e91d94b473d044febfef650,18,male,1,2,75,Clear_profit_side,3,0,0,0,left,left,left,2,1,1,0.175,12,141,291,0.29100000000000004,1.741,0,0,0,0,0
5e91d94b473d044febfef650,18,male,1,2,78,Clear_profit_side,3,0,0,0,left,left,left,2,1,1,0.16,12,141,291,0.29100000000000004,1.741,0,0,0,0,0
5e91d94b473d044febfef650,18,male,1,2,82,Clear_profit_side,3,0,0,0,left,left,left,2,1,1,0.145,12,141,291,0.29100000000000004,1.741,0,0,0,0,0
5e91d94b473d044febfef650,18,male,1,2,88,Clear_profit_side,3,0,0,0,left,left,left,2,1,1,0.132,12,141,291,0.29100000000000004,1.741,0,0,0,0,0
5e91d94b473d044febfef650,18,male,1,2,95,Clear_profit_side,3,0,0,0,left,left,left,2,1,1,0.124,12,141,291,0.29100000000000004,1.741,0,0,0,0,0
5eae4c54e1015a50baf832cb,26,female,0,1,4,Clear_profit_side,1,90,1,20,left,left,right,-19,0,0,0.316,14,771,1561,1.561,3.011,1,1,0,1,0
5eae4c54e1015a50baf832cb,26,female,0,1,9,Clear_profit_side,1,90,1,20,left,left,left,20,-19,1,0.314,14,771,1561,1.561,3.011,0,0,0,1,0
5eae4c54e1015a50baf832cb,26,female,0,1,19,Clear_profit_side,1,90,1,20,left,left,left,20,-19,1,0.264,14,771,1561,1.561,3.011,0,0,0,1,0
5eae4c54e1015a50baf832cb,26,female,0,1,29,Clear_profit_side,1,90,1,20,left,left,left,20,-19,1,0.205,14,771,1561,1.561,3.011,0,0,0,1,0
5eae4c54e1015a50baf832cb,26,female,0,1,31,Clear_profit_side,1,90,1,20,left,left,left,20,-19,1,0.243,14,771,1561,1.561,3.011,0,0,0,1,0
5eae4c54e1015a50baf832cb,26,female,0,1,32,Clear_profit_side,1,90,1,20,left,left,left,20,-19,1,0.16899999999999998,14,771,1561,1.561,3.011,0,0,0,1,0
5eae4c54e1015a50baf832cb,26,female,0,1,36,Clear_profit_side,1,90,1,20,left,left,left,20,-19,1,0.213,14,771,1561,1.561,3.011,0,0,0,1,0
5eae4c54e1015a50baf832cb,26,female,0,1,38,Clear_profit_side,1,90,1,20,left,left,left,20,-19,1,0.155,14,771,1561,1.561,3.011,0,0,0,1,0
5eae4c54e1015a50baf832cb,26,female,0,1,45,Clear_profit_side,1,90,1,20,left,left,left,20,-19,1,0.196,14,771,1561,1.561,3.011,0,0,0,1,0
5eae4c54e1015a50baf832cb,26,female,0,1,62,Clear_profit_side,1,90,1,20,left,left,left,20,-19,1,0.17300000000000001,14,771,1561,1.561,3.011,0,0,0,1,0
5eae4c54e1015a50baf832cb,26,female,0,1,75,Clear_profit_side,1,90,1,20,left,left,left,20,-19,1,0.161,14,771,1561,1.561,3.011,0,0,0,1,0
5eae4c54e1015a50baf832cb,26,female,0,1,80,Clear_profit_side,1,90,1,20,left,left,left,20,-19,1,0.193,14,771,1561,1.561,3.011,0,0,0,1,0
5eae4c54e1015a50baf832cb,26,female,0,1,81,Clear_profit_side,1,90,1,20,left,left,left,20,-19,1,0.17800000000000002,14,771,1561,1.561,3.011,0,0,0,1,0
5eae4c54e1015a50baf832cb,26,female,0,1,87,Clear_profit_side,1,90,1,20,left,left,left,20,-19,1,0.191,14,771,1561,1.561,3.011,0,0,0,1,0
5eae4c54e1015a50baf832cb,26,female,0,1,97,Clear_profit_side,1,90,1,20,left,left,left,20,-19,1,0.21100000000000002,14,771,1561,1.561,3.011,0,0,0,1,0
5eae4c54e1015a50baf832cb,26,female,0,1,98,Clear_profit_side,1,90,1,20,left,left,left,20,-19,1,0.18600000000000005,14,771,1561,1.561,3.011,0,0,0,1,0
5eae4c54e1015a50baf832cb,26,female,0,2,2,Clear_profit_side,1,90,1,20,left,left,left,20,-19,1,0.451,15,790,1561,1.561,3.011,0,0,0,0,0
5eae4c54e1015a50baf832cb,26,female,0,2,10,Clear_profit_side,1,90,1,20,left,left,left,20,-19,1,0.196,15,790,1561,1.561,3.011,0,0,0,0,0
5eae4c54e1015a50baf832cb,26,female,0,2,16,Clear_profit_side,1,90,1,20,left,left,left,20,-19,1,0.182,15,790,1561,1.561,3.011,0,0,0,0,0
5eae4c54e1015a50baf832cb,26,female,0,2,20,Clear_profit_side,1,90,1,20,left,left,left,20,-19,1,0.215,15,790,1561,1.561,3.011,0,0,0,0,0
5eae4c54e1015a50baf832cb,26,female,0,2,26,Clear_profit_side,1,90,1,20,left,left,left,20,-19,1,0.158,15,790,1561,1.561,3.011,0,0,0,0,0
5eae4c54e1015a50baf832cb,26,female,0,2,43,Clear_profit_side,1,90,1,20,left,left,left,20,-19,1,0.185,15,790,1561,1.561,3.011,0,0,0,0,0
5eae4c54e1015a50baf832cb,26,female,0,2,44,Clear_profit_side,1,90,1,20,left,left,left,20,-19,1,0.156,15,790,1561,1.561,3.011,0,0,0,0,0
5eae4c54e1015a50baf832cb,26,female,0,2,48,Clear_profit_side,1,90,1,20,left,left,left,20,-19,1,0.17800000000000002,15,790,1561,1.561,3.011,0,0,0,0,0
5eae4c54e1015a50baf832cb,26,female,0,2,56,Clear_profit_side,1,90,1,20,left,left,left,20,-19,1,0.153,15,790,1561,1.561,3.011,0,0,0,0,0
5eae4c54e1015a50baf832cb,26,female,0,2,61,Clear_profit_side,1,90,1,20,left,left,left,20,-19,1,0.174,15,790,1561,1.561,3.011,0,0,0,0,0
5eae4c54e1015a50baf832cb,26,female,0,2,63,Clear_profit_side,1,90,1,20,left,left,left,20,-19,1,0.175,15,790,1561,1.561,3.011,0,0,0,0,0
5eae4c54e1015a50baf832cb,26,female,0,2,73,Clear_profit_side,1,90,1,20,left,left,left,20,-19,1,0.172,15,790,1561,1.561,3.011,0,0,0,0,0
5eae4c54e1015a50baf832cb,26,female,0,2,78,Clear_profit_side,1,90,0,0,left,left,left,20,1,1,0.193,15,790,1561,1.561,3.011,0,0,0,0,0
5eae4c54e1015a50baf832cb,26,female,0,2,79,Clear_profit_side,1,90,1,20,left,left,left,20,-19,1,0.172,15,790,1561,1.561,3.011,0,0,0,0,0
5eae4c54e1015a50baf832cb,26,female,0,2,81,Clear_profit_side,1,90,1,20,left,left,left,20,-19,1,0.223,15,790,1561,1.561,3.011,0,0,0,0,0
5eae4c54e1015a50baf832cb,26,female,0,2,83,Clear_profit_side,1,90,1,20,left,left,left,20,-19,1,0.192,15,790,1561,1.561,3.011,0,0,0,0,0
5ecc3b8a119a5e800ca47d80,20,female,0,1,17,Clear_profit_side,1,90,1,20,right,right,left,-19,0,0,0.185,19,632,1344,1.344,2.7939999999999996,1,1,0,1,0
5ecc3b8a119a5e800ca47d80,20,female,0,1,18,Clear_profit_side,1,90,1,20,right,right,right,20,-19,1,0.292,19,632,1344,1.344,2.7939999999999996,0,0,0,1,0
5ecc3b8a119a5e800ca47d80,20,female,0,1,20,Clear_profit_side,1,90,1,20,right,right,right,20,-19,1,0.273,19,632,1344,1.344,2.7939999999999996,0,0,0,1,0
5ecc3b8a119a5e800ca47d80,20,female,0,1,29,Clear_profit_side,1,90,1,20,right,right,right,20,-19,1,0.113,19,632,1344,1.344,2.7939999999999996,0,0,0,1,0
5ecc3b8a119a5e800ca47d80,20,female,0,1,32,Clear_profit_side,1,90,0,0,right,right,right,20,1,1,0.221,19,632,1344,1.344,2.7939999999999996,0,0,0,1,0
5ecc3b8a119a5e800ca47d80,20,female,0,1,33,Clear_profit_side,1,90,1,20,right,right,right,20,-19,1,0.166,19,632,1344,1.344,2.7939999999999996,0,0,0,1,0
5ecc3b8a119a5e800ca47d80,20,female,0,1,37,Clear_profit_side,1,90,1,20,right,right,right,20,-19,1,0.105,19,632,1344,1.344,2.7939999999999996,0,0,0,1,0
5ecc3b8a119a5e800ca47d80,20,female,0,1,42,Clear_profit_side,1,90,1,20,right,right,right,20,-19,1,0.122,19,632,1344,1.344,2.7939999999999996,0,0,0,1,0
5ecc3b8a119a5e800ca47d80,20,female,0,1,57,Clear_profit_side,1,90,1,20,right,right,right,20,-19,1,0.107,19,632,1344,1.344,2.7939999999999996,0,0,0,1,0
5ecc3b8a119a5e800ca47d80,20,female,0,1,60,Clear_profit_side,1,90,1,20,right,right,right,20,-19,1,0.087,19,632,1344,1.344,2.7939999999999996,0,0,0,1,0
5ecc3b8a119a5e800ca47d80,20,female,0,1,67,Clear_profit_side,1,90,1,20,right,right,right,20,-19,1,0.161,19,632,1344,1.344,2.7939999999999996,0,0,0,1,0
5ecc3b8a119a5e800ca47d80,20,female,0,1,70,Clear_profit_side,1,90,1,20,right,right,right,20,-19,1,0.099,19,632,1344,1.344,2.7939999999999996,0,0,0,1,0
5ecc3b8a119a5e800ca47d80,20,female,0,1,87,Clear_profit_side,1,90,1,20,right,right,right,20,-19,1,0.122,19,632,1344,1.344,2.7939999999999996,0,0,0,1,0
5ecc3b8a119a5e800ca47d80,20,female,0,1,91,Clear_profit_side,1,90,1,20,right,right,right,20,-19,1,0.12,19,632,1344,1.344,2.7939999999999996,0,0,0,1,0
5ecc3b8a119a5e800ca47d80,20,female,0,1,93,Clear_profit_side,1,90,1,20,right,right,right,20,-19,1,0.168,19,632,1344,1.344,2.7939999999999996,0,0,0,1,0
5ecc3b8a119a5e800ca47d80,20,female,0,1,94,Clear_profit_side,1,90,1,20,right,right,right,20,-19,1,0.102,19,632,1344,1.344,2.7939999999999996,0,0,0,1,0
5ecc3b8a119a5e800ca47d80,20,female,0,2,2,Clear_profit_side,1,90,1,20,right,right,right,20,-19,1,0.235,17,712,1344,1.344,2.7939999999999996,0,0,0,0,0
5ecc3b8a119a5e800ca47d80,20,female,0,2,8,Clear_profit_side,1,90,1,20,right,right,right,20,-19,1,0.135,17,712,1344,1.344,2.7939999999999996,0,0,0,0,0
5ecc3b8a119a5e800ca47d80,20,female,0,2,9,Clear_profit_side,1,90,1,20,right,right,right,20,-19,1,0.10800000000000001,17,712,1344,1.344,2.7939999999999996,0,0,0,0,0
5ecc3b8a119a5e800ca47d80,20,female,0,2,27,Clear_profit_side,1,90,1,20,right,right,right,20,-19,1,0.08900000000000001,17,712,1344,1.344,2.7939999999999996,0,0,0,0,0
5ecc3b8a119a5e800ca47d80,20,female,0,2,28,Clear_profit_side,1,90,1,20,right,right,right,20,-19,1,0.10400000000000001,17,712,1344,1.344,2.7939999999999996,0,0,0,0,0
5ecc3b8a119a5e800ca47d80,20,female,0,2,39,Clear_profit_side,1,90,0,0,right,right,right,20,1,1,0.113,17,712,1344,1.344,2.7939999999999996,0,0,0,0,0
5ecc3b8a119a5e800ca47d80,20,female,0,2,40,Clear_profit_side,1,90,0,0,right,right,right,20,1,1,0.091,17,712,1344,1.344,2.7939999999999996,0,0,0,0,0
5ecc3b8a119a5e800ca47d80,20,female,0,2,50,Clear_profit_side,1,90,1,20,right,right,right,20,-19,1,0.126,17,712,1344,1.344,2.7939999999999996,0,0,0,0,0
5ecc3b8a119a5e800ca47d80,20,female,0,2,53,Clear_profit_side,1,90,1,20,right,right,right,20,-19,1,0.11900000000000001,17,712,1344,1.344,2.7939999999999996,0,0,0,0,0
5ecc3b8a119a5e800ca47d80,20,female,0,2,67,Clear_profit_side,1,90,1,20,right,right,right,20,-19,1,0.111,17,712,1344,1.344,2.7939999999999996,0,0,0,0,0
5ecc3b8a119a5e800ca47d80,20,female,0,2,68,Clear_profit_side,1,90,1,20,right,right,right,20,-19,1,0.113,17,712,1344,1.344,2.7939999999999996,0,0,0,0,0
5ecc3b8a119a5e800ca47d80,20,female,0,2,83,Clear_profit_side,1,90,1,20,right,right,right,20,-19,1,0.17300000000000001,17,712,1344,1.344,2.7939999999999996,0,0,0,0,0
5ecc3b8a119a5e800ca47d80,20,female,0,2,86,Clear_profit_side,1,90,1,20,right,right,right,20,-19,1,0.121,17,712,1344,1.344,2.7939999999999996,0,0,0,0,0
5ecc3b8a119a5e800ca47d80,20,female,0,2,96,Clear_profit_side,1,90,1,20,right,right,right,20,-19,1,0.191,17,712,1344,1.344,2.7939999999999996,0,0,0,0,0
5ecc3b8a119a5e800ca47d80,20,female,0,2,98,Clear_profit_side,1,90,1,20,right,right,right,20,-19,1,0.12,17,712,1344,1.344,2.7939999999999996,0,0,0,0,0
5ecc3b8a119a5e800ca47d80,20,female,0,2,99,Clear_profit_side,1,90,1,20,right,right,right,20,-19,1,0.133,17,712,1344,1.344,2.7939999999999996,0,0,0,0,0
5ecd6addd559270c48385571,20,female,1,1,16,Clear_profit_side,2,10,0,0,right,right,right,20,1,1,0.318,10,671,1465,1.465,2.915,0,0,0,0,0
5ecd6addd559270c48385571,20,female,1,1,19,Clear_profit_side,2,10,0,0,right,right,right,20,1,1,0.19399999999999998,10,671,1465,1.465,2.915,0,0,0,0,0
5ecd6addd559270c48385571,20,female,1,1,25,Clear_profit_side,2,10,0,0,right,right,right,20,1,1,0.247,10,671,1465,1.465,2.915,0,0,0,0,0
5ecd6addd559270c48385571,20,female,1,1,27,Clear_profit_side,2,10,0,0,right,right,right,20,1,1,0.278,10,671,1465,1.465,2.915,0,0,0,0,0
5ecd6addd559270c48385571,20,female,1,1,46,Clear_profit_side,2,10,0,0,right,right,right,20,1,1,0.215,10,671,1465,1.465,2.915,0,0,0,0,0
5ecd6addd559270c48385571,20,female,1,1,50,Clear_profit_side,2,10,0,0,right,right,right,20,1,1,0.249,10,671,1465,1.465,2.915,0,0,0,0,0
5ecd6addd559270c48385571,20,female,1,1,66,Clear_profit_side,2,10,0,0,right,right,right,20,1,1,0.265,10,671,1465,1.465,2.915,0,0,0,0,0
5ecd6addd559270c48385571,20,female,1,1,67,Clear_profit_side,2,10,0,0,right,right,right,20,1,1,0.252,10,671,1465,1.465,2.915,0,0,0,0,0
5ecd6addd559270c48385571,20,female,1,1,74,Clear_profit_side,2,10,0,0,right,right,right,20,1,1,0.28600000000000003,10,671,1465,1.465,2.915,0,0,0,0,0
5ecd6addd559270c48385571,20,female,1,1,84,Clear_profit_side,2,10,0,0,right,right,right,20,1,1,0.196,10,671,1465,1.465,2.915,0,0,0,0,0
5ecd6addd559270c48385571,20,female,1,1,86,Clear_profit_side,2,10,0,0,right,right,right,20,1,1,0.257,10,671,1465,1.465,2.915,0,0,0,0,0
5ecd6addd559270c48385571,20,female,1,1,87,Clear_profit_side,2,10,0,0,right,right,right,20,1,1,0.22,10,671,1465,1.465,2.915,0,0,0,0,0
5ecd6addd559270c48385571,20,female,1,1,90,Clear_profit_side,2,10,0,0,right,right,right,20,1,1,0.233,10,671,1465,1.465,2.915,0,0,0,0,0
5ecd6addd559270c48385571,20,female,1,1,95,Clear_profit_side,2,10,0,0,right,right,right,20,1,1,0.19399999999999998,10,671,1465,1.465,2.915,0,0,0,0,0
5ecd6addd559270c48385571,20,female,1,1,96,Clear_profit_side,2,10,0,0,right,right,right,20,1,1,0.179,10,671,1465,1.465,2.915,0,0,0,0,0
5ecd6addd559270c48385571,20,female,1,1,97,Clear_profit_side,2,10,0,0,right,right,right,20,1,1,0.253,10,671,1465,1.465,2.915,0,0,0,0,0
5ecd6addd559270c48385571,20,female,1,2,4,Clear_profit_side,2,10,0,0,right,right,right,20,1,1,0.22399999999999998,7,794,1465,1.465,2.915,0,0,0,0,0
5ecd6addd559270c48385571,20,female,1,2,6,Clear_profit_side,2,10,0,0,right,right,right,20,1,1,0.318,7,794,1465,1.465,2.915,0,0,0,0,0
5ecd6addd559270c48385571,20,female,1,2,19,Clear_profit_side,2,10,0,0,right,right,right,20,1,1,0.18100000000000002,7,794,1465,1.465,2.915,0,0,0,0,0
5ecd6addd559270c48385571,20,female,1,2,22,Clear_profit_side,2,10,0,0,right,right,right,20,1,1,0.245,7,794,1465,1.465,2.915,0,0,0,0,0
5ecd6addd559270c48385571,20,female,1,2,24,Clear_profit_side,2,10,0,0,right,right,right,20,1,1,0.179,7,794,1465,1.465,2.915,0,0,0,0,0
5ecd6addd559270c48385571,20,female,1,2,42,Clear_profit_side,2,10,0,0,right,right,right,20,1,1,0.23399999999999999,7,794,1465,1.465,2.915,0,0,0,0,0
5ecd6addd559270c48385571,20,female,1,2,45,Clear_profit_side,2,10,1,180,right,right,right,20,-179,1,0.231,7,794,1465,1.465,2.915,0,0,0,0,0
5ecd6addd559270c48385571,20,female,1,2,48,Clear_profit_side,2,10,0,0,right,right,right,20,1,1,0.151,7,794,1465,1.465,2.915,0,0,0,0,0
5ecd6addd559270c48385571,20,female,1,2,59,Clear_profit_side,2,10,0,0,right,right,right,20,1,1,0.212,7,794,1465,1.465,2.915,0,0,0,0,0
5ecd6addd559270c48385571,20,female,1,2,63,Clear_profit_side,2,10,1,180,right,right,right,20,-179,1,0.157,7,794,1465,1.465,2.915,0,0,0,0,0
5ecd6addd559270c48385571,20,female,1,2,83,Clear_profit_side,2,10,0,0,right,right,right,20,1,1,0.16899999999999998,7,794,1465,1.465,2.915,0,0,0,0,0
5ecd6addd559270c48385571,20,female,1,2,84,Clear_profit_side,2,10,0,0,right,right,right,20,1,1,0.139,7,794,1465,1.465,2.915,0,0,0,0,0
5ecd6addd559270c48385571,20,female,1,2,88,Clear_profit_side,2,10,0,0,right,right,right,20,1,1,0.172,7,794,1465,1.465,2.915,0,0,0,0,0
5ecd6addd559270c48385571,20,female,1,2,90,Clear_profit_side,2,10,0,0,right,right,right,20,1,1,0.14800000000000002,7,794,1465,1.465,2.915,0,0,0,0,0
5ecd6addd559270c48385571,20,female,1,2,94,Clear_profit_side,2,10,0,0,right,right,right,20,1,1,0.231,7,794,1465,1.465,2.915,0,0,0,0,0
5ecd6addd559270c48385571,20,female,1,2,95,Clear_profit_side,2,10,0,0,right,right,right,20,1,1,0.275,7,794,1465,1.465,2.915,0,0,0,0,0
