user_id,age,gender,attention,block_number,trial_number,trial_type,conditions,p_inspection,inspection,fine_size,profitable_side,true_side,choice,trial_payoff,alternative_payoff,choice_correct,rt_choice,block_errors,block_payoff,final_payoff,bonus,final_payment,error
56100d727ffc8a0005811338,43,female,1,1,3,Ambigous_left,3,0,0,0,left,left,left,2,1,1,0.285,6,141,277,0.27699999999999997,1.727,0
56100d727ffc8a0005811338,43,female,1,1,4,Ambigous_left,3,0,0,0,left,left,left,2,1,1,0.34700000000000003,6,141,277,0.27699999999999997,1.727,0
56100d727ffc8a0005811338,43,female,1,1,6,Ambigous_left,3,0,0,0,left,left,left,2,1,1,0.268,6,141,277,0.27699999999999997,1.727,0
56100d727ffc8a0005811338,43,female,1,1,12,Clear_profit_side,3,0,0,0,left,left,left,2,1,1,0.318,6,141,277,0.27699999999999997,1.727,0
56100d727ffc8a0005811338,43,female,1,1,15,Ambigous_left,3,0,0,0,left,left,left,2,1,1,0.28,6,141,277,0.27699999999999997,1.727,0
56100d727ffc8a0005811338,43,female,1,1,16,Ambigous_left,3,0,0,0,left,left,left,2,1,1,0.221,6,141,277,0.27699999999999997,1.727,0
56100d727ffc8a0005811338,43,female,1,1,25,Clear_profit_side,3,0,0,0,left,left,left,2,1,1,0.25,6,141,277,0.27699999999999997,1.727,0
56100d727ffc8a0005811338,43,female,1,1,27,Clear_profit_side,3,0,0,0,left,left,left,2,1,1,0.257,6,141,277,0.27699999999999997,1.727,0
56100d727ffc8a0005811338,43,female,1,1,30,Ambigous_left,3,0,0,0,left,left,left,2,1,1,0.22,6,141,277,0.27699999999999997,1.727,0
56100d727ffc8a0005811338,43,female,1,1,31,Clear_profit_side,3,0,0,0,left,left,left,2,1,1,0.193,6,141,277,0.27699999999999997,1.727,0
56100d727ffc8a0005811338,43,female,1,1,34,Ambigous_left,3,0,0,0,left,left,left,2,1,1,0.247,6,141,277,0.27699999999999997,1.727,0
56100d727ffc8a0005811338,43,female,1,1,36,Clear_profit_side,3,0,0,0,left,left,left,2,1,1,0.22399999999999998,6,141,277,0.27699999999999997,1.727,0
56100d727ffc8a0005811338,43,female,1,1,41,Clear_profit_side,3,0,0,0,left,left,left,2,1,1,0.22,6,141,277,0.27699999999999997,1.727,0
56100d727ffc8a0005811338,43,female,1,1,43,Ambigous_left,3,0,0,0,left,left,right,1,2,0,0.7020000000000001,6,141,277,0.27699999999999997,1.727,1
56100d727ffc8a0005811338,43,female,1,1,44,Clear_profit_side,3,0,0,0,left,left,left,2,1,1,0.24600000000000002,6,141,277,0.27699999999999997,1.727,0
56100d727ffc8a0005811338,43,female,1,1,48,Ambigous_left,3,0,0,0,left,left,left,2,1,1,0.24600000000000002,6,141,277,0.27699999999999997,1.727,0
56100d727ffc8a0005811338,43,female,1,1,50,Ambigous_left,3,0,0,0,left,left,left,2,1,1,0.264,6,141,277,0.27699999999999997,1.727,0
56100d727ffc8a0005811338,43,female,1,1,52,Clear_profit_side,3,0,0,0,left,left,left,2,1,1,0.243,6,141,277,0.27699999999999997,1.727,0
56100d727ffc8a0005811338,43,female,1,1,53,Ambigous_left,3,0,0,0,left,left,left,2,1,1,0.16,6,141,277,0.27699999999999997,1.727,0
56100d727ffc8a0005811338,43,female,1,1,54,Ambigous_left,3,0,0,0,left,left,left,2,1,1,0.209,6,141,277,0.27699999999999997,1.727,0
56100d727ffc8a0005811338,43,female,1,1,55,Clear_profit_side,3,0,0,0,left,left,left,2,1,1,0.16899999999999998,6,141,277,0.27699999999999997,1.727,0
56100d727ffc8a0005811338,43,female,1,1,57,Ambigous_left,3,0,0,0,left,left,left,2,1,1,0.228,6,141,277,0.27699999999999997,1.727,0
56100d727ffc8a0005811338,43,female,1,1,59,Clear_profit_side,3,0,0,0,left,left,left,2,1,1,0.25,6,141,277,0.27699999999999997,1.727,0
56100d727ffc8a0005811338,43,female,1,1,61,Clear_profit_side,3,0,0,0,left,left,left,2,1,1,0.226,6,141,277,0.27699999999999997,1.727,0
56100d727ffc8a0005811338,43,female,1,1,63,Ambigous_left,3,0,0,0,left,left,left,2,1,1,0.23,6,141,277,0.27699999999999997,1.727,0
56100d727ffc8a0005811338,43,female,1,1,67,Ambigous_left,3,0,0,0,left,left,right,1,2,0,0.64,6,141,277,0.27699999999999997,1.727,1
56100d727ffc8a0005811338,43,female,1,1,71,Ambigous_left,3,0,0,0,left,left,left,2,1,1,0.23,6,141,277,0.27699999999999997,1.727,0
56100d727ffc8a0005811338,43,female,1,1,73,Ambigous_left,3,0,0,0,left,left,left,2,1,1,0.268,6,141,277,0.27699999999999997,1.727,0
56100d727ffc8a0005811338,43,female,1,1,74,Ambigous_left,3,0,0,0,left,left,left,2,1,1,0.16399999999999998,6,141,277,0.27699999999999997,1.727,0
56100d727ffc8a0005811338,43,female,1,1,79,Ambigous_left,3,0,0,0,left,left,left,2,1,1,0.221,6,141,277,0.27699999999999997,1.727,0
56100d727ffc8a0005811338,43,female,1,1,80,Ambigous_left,3,0,0,0,left,left,right,1,2,0,0.209,6,141,277,0.27699999999999997,1.727,1
56100d727ffc8a0005811338,43,female,1,1,85,Ambigous_left,3,0,0,0,left,left,left,2,1,1,0.418,6,141,277,0.27699999999999997,1.727,0
56100d727ffc8a0005811338,43,female,1,1,86,Clear_profit_side,3,0,0,0,left,left,left,2,1,1,0.242,6,141,277,0.27699999999999997,1.727,0
56100d727ffc8a0005811338,43,female,1,1,88,Ambigous_left,3,0,0,0,left,left,left,2,1,1,0.25,6,141,277,0.27699999999999997,1.727,0
56100d727ffc8a0005811338,43,female,1,1,89,Clear_profit_side,3,0,0,0,left,left,left,2,1,1,0.165,6,141,277,0.27699999999999997,1.727,0
56100d727ffc8a0005811338,43,female,1,1,90,Ambigous_left,3,0,0,0,left,left,left,2,1,1,0.16,6,141,277,0.27699999999999997,1.727,0
56100d727ffc8a0005811338,43,female,1,1,92,Ambigous_left,3,0,0,0,left,left,left,2,1,1,0.223,6,141,277,0.27699999999999997,1.727,0
56100d727ffc8a0005811338,43,female,1,1,94,Clear_profit_side,3,0,0,0,left,left,left,2,1,1,0.22899999999999998,6,141,277,0.27699999999999997,1.727,0
56100d727ffc8a0005811338,43,female,1,1,95,Clear_profit_side,3,0,0,0,left,left,left,2,1,1,0.23800000000000002,6,141,277,0.27699999999999997,1.727,0
56100d727ffc8a0005811338,43,female,1,1,97,Clear_profit_side,3,0,0,0,left,left,left,2,1,1,0.226,6,141,277,0.27699999999999997,1.727,0
56100d727ffc8a0005811338,43,female,1,1,100,Ambigous_left,3,0,0,0,left,left,left,2,1,1,0.222,6,141,277,0.27699999999999997,1.727,0
56100d727ffc8a0005811338,43,female,1,2,1,Ambigous_left,3,0,0,0,left,left,left,2,1,1,0.252,7,136,277,0.27699999999999997,1.727,0
56100d727ffc8a0005811338,43,female,1,2,2,Clear_profit_side,3,0,0,0,left,left,left,2,1,1,0.22399999999999998,7,136,277,0.27699999999999997,1.727,0
56100d727ffc8a0005811338,43,female,1,2,5,Clear_profit_side,3,0,0,0,left,left,left,2,1,1,0.235,7,136,277,0.27699999999999997,1.727,0
56100d727ffc8a0005811338,43,female,1,2,9,Clear_profit_side,3,0,0,0,left,left,left,2,1,1,0.207,7,136,277,0.27699999999999997,1.727,0
56100d727ffc8a0005811338,43,female,1,2,10,Ambigous_left,3,0,0,0,left,left,left,2,1,1,0.16,7,136,277,0.27699999999999997,1.727,0
56100d727ffc8a0005811338,43,female,1,2,12,Ambigous_left,3,0,0,0,left,left,left,2,1,1,0.23800000000000002,7,136,277,0.27699999999999997,1.727,0
56100d727ffc8a0005811338,43,female,1,2,15,Ambigous_left,3,0,0,0,left,left,left,2,1,1,0.22399999999999998,7,136,277,0.27699999999999997,1.727,0
56100d727ffc8a0005811338,43,female,1,2,20,Ambigous_left,3,0,0,0,left,left,left,2,1,1,0.289,7,136,277,0.27699999999999997,1.727,0
56100d727ffc8a0005811338,43,female,1,2,21,Clear_profit_side,3,0,0,0,left,left,right,1,2,0,0.21899999999999997,7,136,277,0.27699999999999997,1.727,1
56100d727ffc8a0005811338,43,female,1,2,25,Ambigous_left,3,0,0,0,left,left,left,2,1,1,0.265,7,136,277,0.27699999999999997,1.727,0
56100d727ffc8a0005811338,43,female,1,2,27,Ambigous_left,3,0,0,0,left,left,left,2,1,1,0.21899999999999997,7,136,277,0.27699999999999997,1.727,0
56100d727ffc8a0005811338,43,female,1,2,30,Clear_profit_side,3,0,0,0,left,left,left,2,1,1,0.23600000000000002,7,136,277,0.27699999999999997,1.727,0
56100d727ffc8a0005811338,43,female,1,2,31,Clear_profit_side,3,0,0,0,left,left,left,2,1,1,0.24100000000000002,7,136,277,0.27699999999999997,1.727,0
56100d727ffc8a0005811338,43,female,1,2,33,Clear_profit_side,3,0,0,0,left,left,left,2,1,1,0.21600000000000003,7,136,277,0.27699999999999997,1.727,0
56100d727ffc8a0005811338,43,female,1,2,34,Ambigous_left,3,0,0,0,left,left,left,2,1,1,0.21,7,136,277,0.27699999999999997,1.727,0
56100d727ffc8a0005811338,43,female,1,2,35,Clear_profit_side,3,0,0,0,left,left,left,2,1,1,0.17800000000000002,7,136,277,0.27699999999999997,1.727,0
56100d727ffc8a0005811338,43,female,1,2,41,Clear_profit_side,3,0,0,0,left,left,left,2,1,1,0.23399999999999999,7,136,277,0.27699999999999997,1.727,0
56100d727ffc8a0005811338,43,female,1,2,42,Clear_profit_side,3,0,0,0,left,left,left,2,1,1,0.22699999999999998,7,136,277,0.27699999999999997,1.727,0
56100d727ffc8a0005811338,43,female,1,2,47,Ambigous_left,3,0,0,0,left,left,left,2,1,1,0.196,7,136,277,0.27699999999999997,1.727,0
56100d727ffc8a0005811338,43,female,1,2,48,Ambigous_left,3,0,0,0,left,left,right,1,2,0,0.366,7,136,277,0.27699999999999997,1.727,1
56100d727ffc8a0005811338,43,female,1,2,49,Ambigous_left,3,0,0,0,left,left,left,2,1,1,0.191,7,136,277,0.27699999999999997,1.727,0
56100d727ffc8a0005811338,43,female,1,2,52,Ambigous_left,3,0,0,0,left,left,left,2,1,1,0.20600000000000002,7,136,277,0.27699999999999997,1.727,0
56100d727ffc8a0005811338,43,female,1,2,53,Ambigous_left,3,0,0,0,left,left,left,2,1,1,0.182,7,136,277,0.27699999999999997,1.727,0
56100d727ffc8a0005811338,43,female,1,2,57,Clear_profit_side,3,0,0,0,left,left,left,2,1,1,0.207,7,136,277,0.27699999999999997,1.727,0
56100d727ffc8a0005811338,43,female,1,2,59,Ambigous_left,3,0,0,0,left,left,left,2,1,1,0.191,7,136,277,0.27699999999999997,1.727,0
56100d727ffc8a0005811338,43,female,1,2,68,Ambigous_left,3,0,0,0,left,left,right,1,2,0,0.19899999999999998,7,136,277,0.27699999999999997,1.727,1
56100d727ffc8a0005811338,43,female,1,2,69,Ambigous_left,3,0,0,0,left,left,left,2,1,1,0.205,7,136,277,0.27699999999999997,1.727,0
56100d727ffc8a0005811338,43,female,1,2,71,Ambigous_left,3,0,0,0,left,left,left,2,1,1,0.205,7,136,277,0.27699999999999997,1.727,0
56100d727ffc8a0005811338,43,female,1,2,74,Ambigous_left,3,0,0,0,left,left,left,2,1,1,0.209,7,136,277,0.27699999999999997,1.727,0
56100d727ffc8a0005811338,43,female,1,2,77,Ambigous_left,3,0,0,0,left,left,right,1,2,0,0.14,7,136,277,0.27699999999999997,1.727,1
56100d727ffc8a0005811338,43,female,1,2,78,Clear_profit_side,3,0,0,0,left,left,left,2,1,1,0.19899999999999998,7,136,277,0.27699999999999997,1.727,0
56100d727ffc8a0005811338,43,female,1,2,84,Ambigous_left,3,0,0,0,left,left,left,2,1,1,0.21100000000000002,7,136,277,0.27699999999999997,1.727,0
56100d727ffc8a0005811338,43,female,1,2,85,Ambigous_left,3,0,0,0,left,left,left,2,1,1,0.21899999999999997,7,136,277,0.27699999999999997,1.727,0
56100d727ffc8a0005811338,43,female,1,2,88,Clear_profit_side,3,0,0,0,left,left,left,2,1,1,0.223,7,136,277,0.27699999999999997,1.727,0
56100d727ffc8a0005811338,43,female,1,2,89,Ambigous_left,3,0,0,0,left,left,left,2,1,1,0.226,7,136,277,0.27699999999999997,1.727,0
56100d727ffc8a0005811338,43,female,1,2,90,Clear_profit_side,3,0,0,0,left,left,left,2,1,1,0.228,7,136,277,0.27699999999999997,1.727,0
56100d727ffc8a0005811338,43,female,1,2,92,Ambigous_left,3,0,0,0,left,left,right,1,2,0,0.379,7,136,277,0.27699999999999997,1.727,1
56100d727ffc8a0005811338,43,female,1,2,94,Clear_profit_side,3,0,0,0,left,left,left,2,1,1,0.213,7,136,277,0.27699999999999997,1.727,0
56100d727ffc8a0005811338,43,female,1,2,96,Ambigous_left,3,0,0,0,left,left,left,2,1,1,0.20199999999999999,7,136,277,0.27699999999999997,1.727,0
56100d727ffc8a0005811338,43,female,1,2,99,Ambigous_left,3,0,0,0,left,left,right,1,2,0,0.221,7,136,277,0.27699999999999997,1.727,1
56100d727ffc8a0005811338,43,female,1,2,100,Clear_profit_side,3,0,0,0,left,left,left,2,1,1,0.282,7,136,277,0.27699999999999997,1.727,0
578f9f52eeaf6d00018d4f20,30,male,1,1,2,Clear_profit_side,3,0,0,0,left,left,left,2,1,1,0.113,59,200,398,0.39799999999999996,1.848,0
578f9f52eeaf6d00018d4f20,30,male,1,1,4,Ambigous_left,3,0,0,0,left,left,left,2,1,1,0.019,59,200,398,0.39799999999999996,1.848,0
578f9f52eeaf6d00018d4f20,30,male,1,1,6,Ambigous_left,3,0,0,0,left,left,left,2,1,1,0.085,59,200,398,0.39799999999999996,1.848,0
578f9f52eeaf6d00018d4f20,30,male,1,1,12,Ambigous_left,3,0,0,0,left,left,left,2,1,1,0.087,59,200,398,0.39799999999999996,1.848,0
578f9f52eeaf6d00018d4f20,30,male,1,1,15,Clear_profit_side,3,0,0,0,left,left,left,2,1,1,3.5039999999999996,59,200,398,0.39799999999999996,1.848,0
578f9f52eeaf6d00018d4f20,30,male,1,1,17,Clear_profit_side,3,0,0,0,left,left,left,2,1,1,0.038,59,200,398,0.39799999999999996,1.848,0
578f9f52eeaf6d00018d4f20,30,male,1,1,18,Clear_profit_side,3,0,0,0,left,left,left,2,1,1,0.053,59,200,398,0.39799999999999996,1.848,0
578f9f52eeaf6d00018d4f20,30,male,1,1,24,Ambigous_left,3,0,0,0,left,left,left,2,1,1,0.039,59,200,398,0.39799999999999996,1.848,0
578f9f52eeaf6d00018d4f20,30,male,1,1,26,Ambigous_left,3,0,0,0,left,left,left,2,1,1,0.04,59,200,398,0.39799999999999996,1.848,0
578f9f52eeaf6d00018d4f20,30,male,1,1,30,Ambigous_left,3,0,0,0,left,left,left,2,1,1,0.040999999999999995,59,200,398,0.39799999999999996,1.848,0
578f9f52eeaf6d00018d4f20,30,male,1,1,31,Ambigous_left,3,0,0,0,left,left,left,2,1,1,0.038,59,200,398,0.39799999999999996,1.848,0
578f9f52eeaf6d00018d4f20,30,male,1,1,32,Ambigous_left,3,0,0,0,left,left,left,2,1,1,0.023,59,200,398,0.39799999999999996,1.848,0
578f9f52eeaf6d00018d4f20,30,male,1,1,35,Clear_profit_side,3,0,0,0,left,left,left,2,1,1,0.040999999999999995,59,200,398,0.39799999999999996,1.848,0
578f9f52eeaf6d00018d4f20,30,male,1,1,36,Clear_profit_side,3,0,0,0,left,left,left,2,1,1,0.026000000000000002,59,200,398,0.39799999999999996,1.848,0
578f9f52eeaf6d00018d4f20,30,male,1,1,37,Ambigous_left,3,0,0,0,left,left,left,2,1,1,0.038,59,200,398,0.39799999999999996,1.848,0
578f9f52eeaf6d00018d4f20,30,male,1,1,38,Ambigous_left,3,0,0,0,left,left,left,2,1,1,0.071,59,200,398,0.39799999999999996,1.848,0
578f9f52eeaf6d00018d4f20,30,male,1,1,40,Ambigous_left,3,0,0,0,left,left,left,2,1,1,0.051,59,200,398,0.39799999999999996,1.848,0
578f9f52eeaf6d00018d4f20,30,male,1,1,49,Ambigous_left,3,0,0,0,left,left,left,2,1,1,0.009000000000000001,59,200,398,0.39799999999999996,1.848,0
578f9f52eeaf6d00018d4f20,30,male,1,1,51,Clear_profit_side,3,0,0,0,left,left,left,2,1,1,0.009000000000000001,59,200,398,0.39799999999999996,1.848,0
578f9f52eeaf6d00018d4f20,30,male,1,1,53,Ambigous_left,3,0,0,0,left,left,left,2,1,1,0.004,59,200,398,0.39799999999999996,1.848,0
578f9f52eeaf6d00018d4f20,30,male,1,1,55,Ambigous_left,3,0,0,0,left,left,left,2,1,1,0.004,59,200,398,0.39799999999999996,1.848,0
578f9f52eeaf6d00018d4f20,30,male,1,1,57,Ambigous_left,3,0,0,0,left,left,left,2,1,1,0.109,59,200,398,0.39799999999999996,1.848,0
578f9f52eeaf6d00018d4f20,30,male,1,1,59,Clear_profit_side,3,0,0,0,left,left,left,2,1,1,0.064,59,200,398,0.39799999999999996,1.848,0
578f9f52eeaf6d00018d4f20,30,male,1,1,60,Ambigous_left,3,0,0,0,left,left,left,2,1,1,0.043,59,200,398,0.39799999999999996,1.848,0
578f9f52eeaf6d00018d4f20,30,male,1,1,63,Ambigous_left,3,0,0,0,left,left,left,2,1,1,0.027999999999999997,59,200,398,0.39799999999999996,1.848,0
578f9f52eeaf6d00018d4f20,30,male,1,1,70,Clear_profit_side,3,0,0,0,left,left,left,2,1,1,0.129,59,200,398,0.39799999999999996,1.848,0
578f9f52eeaf6d00018d4f20,30,male,1,1,71,Ambigous_left,3,0,0,0,left,left,left,2,1,1,0.039,59,200,398,0.39799999999999996,1.848,0
578f9f52eeaf6d00018d4f20,30,male,1,1,73,Clear_profit_side,3,0,0,0,left,left,left,2,1,1,0.109,59,200,398,0.39799999999999996,1.848,0
578f9f52eeaf6d00018d4f20,30,male,1,1,75,Ambigous_left,3,0,0,0,left,left,left,2,1,1,0.099,59,200,398,0.39799999999999996,1.848,0
578f9f52eeaf6d00018d4f20,30,male,1,1,80,Clear_profit_side,3,0,0,0,left,left,left,2,1,1,0.048,59,200,398,0.39799999999999996,1.848,0
578f9f52eeaf6d00018d4f20,30,male,1,1,81,Ambigous_left,3,0,0,0,left,left,left,2,1,1,0.059000000000000004,59,200,398,0.39799999999999996,1.848,0
578f9f52eeaf6d00018d4f20,30,male,1,1,82,Ambigous_left,3,0,0,0,left,left,left,2,1,1,0.038,59,200,398,0.39799999999999996,1.848,0
578f9f52eeaf6d00018d4f20,30,male,1,1,84,Ambigous_left,3,0,0,0,left,left,left,2,1,1,0.048,59,200,398,0.39799999999999996,1.848,0
578f9f52eeaf6d00018d4f20,30,male,1,1,86,Ambigous_left,3,0,0,0,left,left,left,2,1,1,0.055,59,200,398,0.39799999999999996,1.848,0
578f9f52eeaf6d00018d4f20,30,male,1,1,88,Ambigous_left,3,0,0,0,left,left,left,2,1,1,0.07400000000000001,59,200,398,0.39799999999999996,1.848,0
578f9f52eeaf6d00018d4f20,30,male,1,1,90,Clear_profit_side,3,0,0,0,left,left,left,2,1,1,0.045,59,200,398,0.39799999999999996,1.848,0
578f9f52eeaf6d00018d4f20,30,male,1,1,93,Clear_profit_side,3,0,0,0,left,left,left,2,1,1,0.046,59,200,398,0.39799999999999996,1.848,0
578f9f52eeaf6d00018d4f20,30,male,1,1,96,Clear_profit_side,3,0,0,0,left,left,left,2,1,1,0.017,59,200,398,0.39799999999999996,1.848,0
578f9f52eeaf6d00018d4f20,30,male,1,1,97,Ambigous_left,3,0,0,0,left,left,left,2,1,1,0.055,59,200,398,0.39799999999999996,1.848,0
578f9f52eeaf6d00018d4f20,30,male,1,1,98,Clear_profit_side,3,0,0,0,left,left,left,2,1,1,0.027000000000000003,59,200,398,0.39799999999999996,1.848,0
578f9f52eeaf6d00018d4f20,30,male,1,1,100,Clear_profit_side,3,0,0,0,left,left,left,2,1,1,0.017,59,200,398,0.39799999999999996,1.848,0
578f9f52eeaf6d00018d4f20,30,male,1,2,5,Clear_profit_side,3,0,0,0,left,left,left,2,1,1,0.037000000000000005,59,198,398,0.39799999999999996,1.848,0
578f9f52eeaf6d00018d4f20,30,male,1,2,10,Ambigous_left,3,0,0,0,left,left,left,2,1,1,0.039,59,198,398,0.39799999999999996,1.848,0
578f9f52eeaf6d00018d4f20,30,male,1,2,14,Ambigous_left,3,0,0,0,left,left,left,2,1,1,0.047,59,198,398,0.39799999999999996,1.848,0
578f9f52eeaf6d00018d4f20,30,male,1,2,15,Clear_profit_side,3,0,0,0,left,left,left,2,1,1,0.051,59,198,398,0.39799999999999996,1.848,0
578f9f52eeaf6d00018d4f20,30,male,1,2,19,Clear_profit_side,3,0,0,0,left,left,left,2,1,1,0.051,59,198,398,0.39799999999999996,1.848,0
578f9f52eeaf6d00018d4f20,30,male,1,2,25,Ambigous_left,3,0,0,0,left,left,left,2,1,1,0.026000000000000002,59,198,398,0.39799999999999996,1.848,0
578f9f52eeaf6d00018d4f20,30,male,1,2,26,Ambigous_left,3,0,0,0,left,left,left,2,1,1,0.040999999999999995,59,198,398,0.39799999999999996,1.848,0
578f9f52eeaf6d00018d4f20,30,male,1,2,27,Ambigous_left,3,0,0,0,left,left,left,2,1,1,0.053,59,198,398,0.39799999999999996,1.848,0
578f9f52eeaf6d00018d4f20,30,male,1,2,32,Ambigous_left,3,0,0,0,left,left,left,2,1,1,0.032,59,198,398,0.39799999999999996,1.848,0
578f9f52eeaf6d00018d4f20,30,male,1,2,33,Clear_profit_side,3,0,0,0,left,left,left,2,1,1,0.049,59,198,398,0.39799999999999996,1.848,0
578f9f52eeaf6d00018d4f20,30,male,1,2,36,Clear_profit_side,3,0,0,0,left,left,left,2,1,1,0.012,59,198,398,0.39799999999999996,1.848,0
578f9f52eeaf6d00018d4f20,30,male,1,2,37,Clear_profit_side,3,0,0,0,left,left,left,2,1,1,0.054000000000000006,59,198,398,0.39799999999999996,1.848,0
578f9f52eeaf6d00018d4f20,30,male,1,2,38,Clear_profit_side,3,0,0,0,left,left,left,2,1,1,0.079,59,198,398,0.39799999999999996,1.848,0
578f9f52eeaf6d00018d4f20,30,male,1,2,39,Ambigous_left,3,0,0,0,left,left,left,2,1,1,0.05,59,198,398,0.39799999999999996,1.848,0
578f9f52eeaf6d00018d4f20,30,male,1,2,41,Ambigous_left,3,0,0,0,left,left,left,2,1,1,0.04,59,198,398,0.39799999999999996,1.848,0
578f9f52eeaf6d00018d4f20,30,male,1,2,42,Ambigous_left,3,0,0,0,left,left,left,2,1,1,0.017,59,198,398,0.39799999999999996,1.848,0
578f9f52eeaf6d00018d4f20,30,male,1,2,46,Ambigous_left,3,0,0,0,left,left,left,2,1,1,0.013999999999999999,59,198,398,0.39799999999999996,1.848,0
578f9f52eeaf6d00018d4f20,30,male,1,2,47,Ambigous_left,3,0,0,0,left,left,left,2,1,1,0.013000000000000001,59,198,398,0.39799999999999996,1.848,0
578f9f52eeaf6d00018d4f20,30,male,1,2,49,Clear_profit_side,3,0,0,0,left,left,left,2,1,1,0.034,59,198,398,0.39799999999999996,1.848,0
578f9f52eeaf6d00018d4f20,30,male,1,2,51,Clear_profit_side,3,0,0,0,left,left,left,2,1,1,0.04,59,198,398,0.39799999999999996,1.848,0
578f9f52eeaf6d00018d4f20,30,male,1,2,53,Ambigous_left,3,0,0,0,left,left,left,2,1,1,0.1,59,198,398,0.39799999999999996,1.848,0
578f9f52eeaf6d00018d4f20,30,male,1,2,57,Clear_profit_side,3,0,0,0,left,left,left,2,1,1,0.063,59,198,398,0.39799999999999996,1.848,0
578f9f52eeaf6d00018d4f20,30,male,1,2,58,Ambigous_left,3,0,0,0,left,left,left,2,1,1,0.018000000000000002,59,198,398,0.39799999999999996,1.848,0
578f9f52eeaf6d00018d4f20,30,male,1,2,59,Ambigous_left,3,0,0,0,left,left,left,2,1,1,0.017,59,198,398,0.39799999999999996,1.848,0
578f9f52eeaf6d00018d4f20,30,male,1,2,62,Clear_profit_side,3,0,0,0,left,left,left,2,1,1,0.036000000000000004,59,198,398,0.39799999999999996,1.848,0
578f9f52eeaf6d00018d4f20,30,male,1,2,67,Clear_profit_side,3,0,0,0,left,left,left,2,1,1,0.077,59,198,398,0.39799999999999996,1.848,0
578f9f52eeaf6d00018d4f20,30,male,1,2,69,Ambigous_left,3,0,0,0,left,left,left,2,1,1,0.067,59,198,398,0.39799999999999996,1.848,0
578f9f52eeaf6d00018d4f20,30,male,1,2,70,Ambigous_left,3,0,0,0,left,left,left,2,1,1,0.081,59,198,398,0.39799999999999996,1.848,0
578f9f52eeaf6d00018d4f20,30,male,1,2,71,Ambigous_left,3,0,0,0,left,left,left,2,1,1,0.069,59,198,398,0.39799999999999996,1.848,0
578f9f52eeaf6d00018d4f20,30,male,1,2,75,Ambigous_left,3,0,0,0,left,left,left,2,1,1,0.027000000000000003,59,198,398,0.39799999999999996,1.848,0
578f9f52eeaf6d00018d4f20,30,male,1,2,83,Clear_profit_side,3,0,0,0,left,left,left,2,1,1,0.018000000000000002,59,198,398,0.39799999999999996,1.848,0
578f9f52eeaf6d00018d4f20,30,male,1,2,84,Ambigous_left,3,0,0,0,left,left,left,2,1,1,0.079,59,198,398,0.39799999999999996,1.848,0
578f9f52eeaf6d00018d4f20,30,male,1,2,85,Clear_profit_side,3,0,0,0,left,left,left,2,1,1,0.037000000000000005,59,198,398,0.39799999999999996,1.848,0
578f9f52eeaf6d00018d4f20,30,male,1,2,86,Clear_profit_side,3,0,0,0,left,left,left,2,1,1,0.08,59,198,398,0.39799999999999996,1.848,0
578f9f52eeaf6d00018d4f20,30,male,1,2,87,Ambigous_left,3,0,0,0,left,left,left,2,1,1,0.07200000000000001,59,198,398,0.39799999999999996,1.848,0
578f9f52eeaf6d00018d4f20,30,male,1,2,90,Ambigous_left,3,0,0,0,left,left,left,2,1,1,0.066,59,198,398,0.39799999999999996,1.848,0
578f9f52eeaf6d00018d4f20,30,male,1,2,94,Ambigous_left,3,0,0,0,left,left,left,2,1,1,0.064,59,198,398,0.39799999999999996,1.848,0
578f9f52eeaf6d00018d4f20,30,male,1,2,95,Clear_profit_side,3,0,0,0,left,left,left,2,1,1,0.06,59,198,398,0.39799999999999996,1.848,0
578f9f52eeaf6d00018d4f20,30,male,1,2,96,Ambigous_left,3,0,0,0,left,left,left,2,1,1,0.057999999999999996,59,198,398,0.39799999999999996,1.848,0
578f9f52eeaf6d00018d4f20,30,male,1,2,99,Ambigous_left,3,0,0,0,left,left,left,2,1,1,0.059000000000000004,59,198,398,0.39799999999999996,1.848,0
595bf7acc76e6700014d33fc,52,female,1,1,2,Clear_profit_side,2,10,0,0,left,left,left,20,1,1,0.064,9,642,1170,1.17,2.62,0
595bf7acc76e6700014d33fc,52,female,1,1,3,Ambigous_left,2,10,0,0,left,left,left,20,1,1,0.068,9,642,1170,1.17,2.62,0
595bf7acc76e6700014d33fc,52,female,1,1,4,Clear_profit_side,2,10,0,0,left,left,left,20,1,1,0.08199999999999999,9,642,1170,1.17,2.62,0
595bf7acc76e6700014d33fc,52,female,1,1,5,Ambigous_left,2,10,0,0,left,left,right,1,20,0,0.068,9,642,1170,1.17,2.62,1
595bf7acc76e6700014d33fc,52,female,1,1,6,Ambigous_left,2,10,0,0,left,left,left,20,1,1,0.064,9,642,1170,1.17,2.62,0
595bf7acc76e6700014d33fc,52,female,1,1,10,Clear_profit_side,2,10,0,0,left,left,left,20,1,1,0.057999999999999996,9,642,1170,1.17,2.62,0
595bf7acc76e6700014d33fc,52,female,1,1,14,Clear_profit_side,2,10,0,0,left,left,left,20,1,1,0.07400000000000001,9,642,1170,1.17,2.62,0
595bf7acc76e6700014d33fc,52,female,1,1,15,Ambigous_left,2,10,0,0,left,left,right,1,20,0,0.078,9,642,1170,1.17,2.62,1
595bf7acc76e6700014d33fc,52,female,1,1,16,Ambigous_left,2,10,0,0,left,left,left,20,1,1,0.059000000000000004,9,642,1170,1.17,2.62,0
595bf7acc76e6700014d33fc,52,female,1,1,19,Ambigous_left,2,10,0,0,left,left,left,20,1,1,0.048,9,642,1170,1.17,2.62,0
595bf7acc76e6700014d33fc,52,female,1,1,21,Clear_profit_side,2,10,0,0,left,left,left,20,1,1,0.061,9,642,1170,1.17,2.62,0
595bf7acc76e6700014d33fc,52,female,1,1,24,Clear_profit_side,2,10,0,0,left,left,left,20,1,1,0.049,9,642,1170,1.17,2.62,0
595bf7acc76e6700014d33fc,52,female,1,1,26,Ambigous_left,2,10,1,180,left,left,left,20,-179,1,0.06,9,642,1170,1.17,2.62,0
595bf7acc76e6700014d33fc,52,female,1,1,29,Ambigous_left,2,10,0,0,left,left,left,20,1,1,0.09300000000000001,9,642,1170,1.17,2.62,0
595bf7acc76e6700014d33fc,52,female,1,1,30,Clear_profit_side,2,10,0,0,left,left,left,20,1,1,0.042,9,642,1170,1.17,2.62,0
595bf7acc76e6700014d33fc,52,female,1,1,31,Clear_profit_side,2,10,0,0,left,left,left,20,1,1,0.055,9,642,1170,1.17,2.62,0
595bf7acc76e6700014d33fc,52,female,1,1,32,Clear_profit_side,2,10,0,0,left,left,left,20,1,1,0.043,9,642,1170,1.17,2.62,0
595bf7acc76e6700014d33fc,52,female,1,1,35,Clear_profit_side,2,10,0,0,left,left,left,20,1,1,0.059000000000000004,9,642,1170,1.17,2.62,0
595bf7acc76e6700014d33fc,52,female,1,1,36,Ambigous_left,2,10,0,0,left,left,left,20,1,1,0.073,9,642,1170,1.17,2.62,0
595bf7acc76e6700014d33fc,52,female,1,1,41,Ambigous_left,2,10,0,0,left,left,left,20,1,1,0.067,9,642,1170,1.17,2.62,0
595bf7acc76e6700014d33fc,52,female,1,1,42,Ambigous_left,2,10,0,0,left,left,left,20,1,1,0.039,9,642,1170,1.17,2.62,0
595bf7acc76e6700014d33fc,52,female,1,1,46,Clear_profit_side,2,10,1,180,left,left,left,20,-179,1,0.035,9,642,1170,1.17,2.62,0
595bf7acc76e6700014d33fc,52,female,1,1,47,Clear_profit_side,2,10,1,180,left,left,left,20,-179,1,0.053,9,642,1170,1.17,2.62,0
595bf7acc76e6700014d33fc,52,female,1,1,49,Ambigous_left,2,10,0,0,left,left,right,1,20,0,0.057,9,642,1170,1.17,2.62,1
595bf7acc76e6700014d33fc,52,female,1,1,50,Ambigous_left,2,10,0,0,left,left,left,20,1,1,0.040999999999999995,9,642,1170,1.17,2.62,0
595bf7acc76e6700014d33fc,52,female,1,1,53,Ambigous_left,2,10,0,0,left,left,left,20,1,1,0.057,9,642,1170,1.17,2.62,0
595bf7acc76e6700014d33fc,52,female,1,1,56,Clear_profit_side,2,10,0,0,left,left,left,20,1,1,0.055999999999999994,9,642,1170,1.17,2.62,0
595bf7acc76e6700014d33fc,52,female,1,1,58,Ambigous_left,2,10,1,180,left,left,left,20,-179,1,0.046,9,642,1170,1.17,2.62,0
595bf7acc76e6700014d33fc,52,female,1,1,62,Ambigous_left,2,10,0,0,left,left,left,20,1,1,0.059000000000000004,9,642,1170,1.17,2.62,0
595bf7acc76e6700014d33fc,52,female,1,1,63,Ambigous_left,2,10,0,0,left,left,left,20,1,1,0.052000000000000005,9,642,1170,1.17,2.62,0
595bf7acc76e6700014d33fc,52,female,1,1,64,Ambigous_left,2,10,0,0,left,left,right,1,20,0,0.064,9,642,1170,1.17,2.62,1
595bf7acc76e6700014d33fc,52,female,1,1,70,Ambigous_left,2,10,0,0,left,left,left,20,1,1,0.064,9,642,1170,1.17,2.62,0
595bf7acc76e6700014d33fc,52,female,1,1,71,Ambigous_left,2,10,0,0,left,left,left,20,1,1,0.036000000000000004,9,642,1170,1.17,2.62,0
595bf7acc76e6700014d33fc,52,female,1,1,72,Ambigous_left,2,10,0,0,left,left,left,20,1,1,0.081,9,642,1170,1.17,2.62,0
595bf7acc76e6700014d33fc,52,female,1,1,74,Ambigous_left,2,10,0,0,left,left,right,1,20,0,0.046,9,642,1170,1.17,2.62,1
595bf7acc76e6700014d33fc,52,female,1,1,78,Clear_profit_side,2,10,0,0,left,left,left,20,1,1,0.059000000000000004,9,642,1170,1.17,2.62,0
595bf7acc76e6700014d33fc,52,female,1,1,81,Clear_profit_side,2,10,0,0,left,left,left,20,1,1,0.047,9,642,1170,1.17,2.62,0
595bf7acc76e6700014d33fc,52,female,1,1,94,Ambigous_left,2,10,0,0,left,left,right,1,20,0,0.049,9,642,1170,1.17,2.62,1
595bf7acc76e6700014d33fc,52,female,1,1,96,Ambigous_left,2,10,0,0,left,left,left,20,1,1,0.042,9,642,1170,1.17,2.62,0
595bf7acc76e6700014d33fc,52,female,1,1,98,Ambigous_left,2,10,0,0,left,left,left,20,1,1,0.079,9,642,1170,1.17,2.62,0
595bf7acc76e6700014d33fc,52,female,1,1,100,Clear_profit_side,2,10,0,0,left,left,left,20,1,1,0.044000000000000004,9,642,1170,1.17,2.62,0
595bf7acc76e6700014d33fc,52,female,1,2,4,Clear_profit_side,2,10,0,0,left,left,left,20,1,1,0.049,13,528,1170,1.17,2.62,0
595bf7acc76e6700014d33fc,52,female,1,2,6,Ambigous_left,2,10,0,0,left,left,left,20,1,1,0.038,13,528,1170,1.17,2.62,0
595bf7acc76e6700014d33fc,52,female,1,2,9,Ambigous_left,2,10,0,0,left,left,right,1,20,0,0.046,13,528,1170,1.17,2.62,1
595bf7acc76e6700014d33fc,52,female,1,2,10,Ambigous_left,2,10,0,0,left,left,left,20,1,1,0.038,13,528,1170,1.17,2.62,0
595bf7acc76e6700014d33fc,52,female,1,2,11,Clear_profit_side,2,10,0,0,left,left,left,20,1,1,0.040999999999999995,13,528,1170,1.17,2.62,0
595bf7acc76e6700014d33fc,52,female,1,2,12,Clear_profit_side,2,10,0,0,left,left,left,20,1,1,0.033,13,528,1170,1.17,2.62,0
595bf7acc76e6700014d33fc,52,female,1,2,15,Ambigous_left,2,10,0,0,left,left,left,20,1,1,0.035,13,528,1170,1.17,2.62,0
595bf7acc76e6700014d33fc,52,female,1,2,19,Ambigous_left,2,10,0,0,left,left,right,1,20,0,0.055,13,528,1170,1.17,2.62,1
595bf7acc76e6700014d33fc,52,female,1,2,22,Ambigous_left,2,10,0,0,left,left,right,1,20,0,0.026000000000000002,13,528,1170,1.17,2.62,1
595bf7acc76e6700014d33fc,52,female,1,2,23,Ambigous_left,2,10,0,0,left,left,right,1,20,0,0.040999999999999995,13,528,1170,1.17,2.62,1
595bf7acc76e6700014d33fc,52,female,1,2,25,Clear_profit_side,2,10,1,180,left,left,left,20,-179,1,0.083,13,528,1170,1.17,2.62,0
595bf7acc76e6700014d33fc,52,female,1,2,30,Ambigous_left,2,10,0,0,left,left,left,20,1,1,0.036000000000000004,13,528,1170,1.17,2.62,0
595bf7acc76e6700014d33fc,52,female,1,2,32,Clear_profit_side,2,10,0,0,left,left,left,20,1,1,0.068,13,528,1170,1.17,2.62,0
595bf7acc76e6700014d33fc,52,female,1,2,35,Clear_profit_side,2,10,1,180,left,left,left,20,-179,1,0.065,13,528,1170,1.17,2.62,0
595bf7acc76e6700014d33fc,52,female,1,2,38,Clear_profit_side,2,10,0,0,left,left,left,20,1,1,0.047,13,528,1170,1.17,2.62,0
595bf7acc76e6700014d33fc,52,female,1,2,43,Clear_profit_side,2,10,0,0,left,left,left,20,1,1,0.057999999999999996,13,528,1170,1.17,2.62,0
595bf7acc76e6700014d33fc,52,female,1,2,44,Ambigous_left,2,10,0,0,left,left,left,20,1,1,0.046,13,528,1170,1.17,2.62,0
595bf7acc76e6700014d33fc,52,female,1,2,45,Ambigous_left,2,10,0,0,left,left,left,20,1,1,0.021,13,528,1170,1.17,2.62,0
595bf7acc76e6700014d33fc,52,female,1,2,48,Ambigous_left,2,10,0,0,left,left,right,1,20,0,0.037000000000000005,13,528,1170,1.17,2.62,1
595bf7acc76e6700014d33fc,52,female,1,2,49,Ambigous_left,2,10,1,180,left,left,left,20,-179,1,0.098,13,528,1170,1.17,2.62,0
595bf7acc76e6700014d33fc,52,female,1,2,50,Clear_profit_side,2,10,0,0,left,left,left,20,1,1,0.026000000000000002,13,528,1170,1.17,2.62,0
595bf7acc76e6700014d33fc,52,female,1,2,55,Ambigous_left,2,10,0,0,left,left,left,20,1,1,0.028999999999999998,13,528,1170,1.17,2.62,0
595bf7acc76e6700014d33fc,52,female,1,2,56,Ambigous_left,2,10,0,0,left,left,right,1,20,0,0.043,13,528,1170,1.17,2.62,1
595bf7acc76e6700014d33fc,52,female,1,2,57,Ambigous_left,2,10,0,0,left,left,right,1,20,0,0.032,13,528,1170,1.17,2.62,1
595bf7acc76e6700014d33fc,52,female,1,2,58,Clear_profit_side,2,10,0,0,left,left,left,20,1,1,0.040999999999999995,13,528,1170,1.17,2.62,0
595bf7acc76e6700014d33fc,52,female,1,2,61,Clear_profit_side,2,10,0,0,left,left,left,20,1,1,0.032,13,528,1170,1.17,2.62,0
595bf7acc76e6700014d33fc,52,female,1,2,64,Ambigous_left,2,10,0,0,left,left,left,20,1,1,0.038,13,528,1170,1.17,2.62,0
595bf7acc76e6700014d33fc,52,female,1,2,67,Clear_profit_side,2,10,0,0,left,left,left,20,1,1,0.033,13,528,1170,1.17,2.62,0
595bf7acc76e6700014d33fc,52,female,1,2,68,Clear_profit_side,2,10,0,0,left,left,left,20,1,1,0.055999999999999994,13,528,1170,1.17,2.62,0
595bf7acc76e6700014d33fc,52,female,1,2,69,Ambigous_left,2,10,0,0,left,left,right,1,20,0,0.043,13,528,1170,1.17,2.62,1
595bf7acc76e6700014d33fc,52,female,1,2,70,Ambigous_left,2,10,0,0,left,left,right,1,20,0,0.051,13,528,1170,1.17,2.62,1
595bf7acc76e6700014d33fc,52,female,1,2,71,Ambigous_left,2,10,0,0,left,left,left,20,1,1,0.039,13,528,1170,1.17,2.62,0
595bf7acc76e6700014d33fc,52,female,1,2,74,Clear_profit_side,2,10,0,0,left,left,left,20,1,1,0.028999999999999998,13,528,1170,1.17,2.62,0
595bf7acc76e6700014d33fc,52,female,1,2,75,Ambigous_left,2,10,0,0,left,left,left,20,1,1,0.027999999999999997,13,528,1170,1.17,2.62,0
595bf7acc76e6700014d33fc,52,female,1,2,82,Ambigous_left,2,10,0,0,left,left,left,20,1,1,0.047,13,528,1170,1.17,2.62,0
595bf7acc76e6700014d33fc,52,female,1,2,84,Clear_profit_side,2,10,1,180,left,left,left,20,-179,1,0.035,13,528,1170,1.17,2.62,0
595bf7acc76e6700014d33fc,52,female,1,2,85,Ambigous_left,2,10,0,0,left,left,left,20,1,1,0.046,13,528,1170,1.17,2.62,0
595bf7acc76e6700014d33fc,52,female,1,2,87,Ambigous_left,2,10,0,0,left,left,left,20,1,1,0.043,13,528,1170,1.17,2.62,0
595bf7acc76e6700014d33fc,52,female,1,2,89,Ambigous_left,2,10,0,0,left,left,right,1,20,0,0.037000000000000005,13,528,1170,1.17,2.62,1
595bf7acc76e6700014d33fc,52,female,1,2,90,Clear_profit_side,2,10,0,0,left,left,left,20,1,1,0.044000000000000004,13,528,1170,1.17,2.62,0
595bf7acc76e6700014d33fc,52,female,1,2,98,Ambigous_left,2,10,0,0,left,left,right,1,20,0,0.031,13,528,1170,1.17,2.62,1
59e7276d5de9b000017ed1c1,38,male,0,1,6,Clear_profit_side,3,0,0,0,right,right,right,2,1,1,0.48700000000000004,13,152,325,0.325,1.775,0
59e7276d5de9b000017ed1c1,38,male,0,1,7,Ambigous_right,3,0,0,0,right,right,right,2,1,1,0.401,13,152,325,0.325,1.775,0
59e7276d5de9b000017ed1c1,38,male,0,1,11,Clear_profit_side,3,0,0,0,right,right,right,2,1,1,0.5479999999999999,13,152,325,0.325,1.775,0
59e7276d5de9b000017ed1c1,38,male,0,1,14,Clear_profit_side,3,0,0,0,right,right,right,2,1,1,0.218,13,152,325,0.325,1.775,0
59e7276d5de9b000017ed1c1,38,male,0,1,16,Ambigous_right,3,0,0,0,right,right,right,2,1,1,0.43799999999999994,13,152,325,0.325,1.775,0
59e7276d5de9b000017ed1c1,38,male,0,1,18,Clear_profit_side,3,0,0,0,right,right,right,2,1,1,0.294,13,152,325,0.325,1.775,0
59e7276d5de9b000017ed1c1,38,male,0,1,22,Clear_profit_side,3,0,0,0,right,right,right,2,1,1,0.344,13,152,325,0.325,1.775,0
59e7276d5de9b000017ed1c1,38,male,0,1,24,Ambigous_right,3,0,0,0,right,right,right,2,1,1,0.293,13,152,325,0.325,1.775,0
59e7276d5de9b000017ed1c1,38,male,0,1,25,Clear_profit_side,3,0,0,0,right,right,right,2,1,1,0.38299999999999995,13,152,325,0.325,1.775,0
59e7276d5de9b000017ed1c1,38,male,0,1,26,Clear_profit_side,3,0,0,0,right,right,right,2,1,1,0.633,13,152,325,0.325,1.775,0
59e7276d5de9b000017ed1c1,38,male,0,1,27,Ambigous_right,3,0,0,0,right,right,right,2,1,1,0.452,13,152,325,0.325,1.775,0
59e7276d5de9b000017ed1c1,38,male,0,1,29,Ambigous_right,3,0,0,0,right,right,right,2,1,1,0.24,13,152,325,0.325,1.775,0
59e7276d5de9b000017ed1c1,38,male,0,1,31,Clear_profit_side,3,0,0,0,right,right,right,2,1,1,0.275,13,152,325,0.325,1.775,0
59e7276d5de9b000017ed1c1,38,male,0,1,33,Ambigous_right,3,0,0,0,right,right,right,2,1,1,0.203,13,152,325,0.325,1.775,0
59e7276d5de9b000017ed1c1,38,male,0,1,35,Clear_profit_side,3,0,0,0,right,right,right,2,1,1,0.245,13,152,325,0.325,1.775,0
59e7276d5de9b000017ed1c1,38,male,0,1,38,Ambigous_right,3,0,0,0,right,right,right,2,1,1,0.21100000000000002,13,152,325,0.325,1.775,0
59e7276d5de9b000017ed1c1,38,male,0,1,39,Ambigous_right,3,0,0,0,right,right,right,2,1,1,0.275,13,152,325,0.325,1.775,0
59e7276d5de9b000017ed1c1,38,male,0,1,40,Ambigous_right,3,0,0,0,right,right,right,2,1,1,0.20199999999999999,13,152,325,0.325,1.775,0
59e7276d5de9b000017ed1c1,38,male,0,1,41,Ambigous_right,3,0,0,0,right,right,right,2,1,1,0.225,13,152,325,0.325,1.775,0
59e7276d5de9b000017ed1c1,38,male,0,1,44,Ambigous_right,3,0,0,0,right,right,right,2,1,1,0.27,13,152,325,0.325,1.775,0
59e7276d5de9b000017ed1c1,38,male,0,1,47,Ambigous_right,3,0,0,0,right,right,right,2,1,1,0.228,13,152,325,0.325,1.775,0
59e7276d5de9b000017ed1c1,38,male,0,1,54,Ambigous_right,3,0,0,0,right,right,right,2,1,1,0.217,13,152,325,0.325,1.775,0
59e7276d5de9b000017ed1c1,38,male,0,1,55,Ambigous_right,3,0,0,0,right,right,right,2,1,1,0.221,13,152,325,0.325,1.775,0
59e7276d5de9b000017ed1c1,38,male,0,1,58,Ambigous_right,3,0,0,0,right,right,right,2,1,1,0.307,13,152,325,0.325,1.775,0
59e7276d5de9b000017ed1c1,38,male,0,1,62,Ambigous_right,3,0,0,0,right,right,left,1,2,0,0.48200000000000004,13,152,325,0.325,1.775,1
59e7276d5de9b000017ed1c1,38,male,0,1,66,Ambigous_right,3,0,0,0,right,right,right,2,1,1,0.264,13,152,325,0.325,1.775,0
59e7276d5de9b000017ed1c1,38,male,0,1,70,Clear_profit_side,3,0,0,0,right,right,right,2,1,1,0.34600000000000003,13,152,325,0.325,1.775,0
59e7276d5de9b000017ed1c1,38,male,0,1,73,Ambigous_right,3,0,0,0,right,right,right,2,1,1,0.213,13,152,325,0.325,1.775,0
59e7276d5de9b000017ed1c1,38,male,0,1,74,Clear_profit_side,3,0,0,0,right,right,right,2,1,1,0.245,13,152,325,0.325,1.775,0
59e7276d5de9b000017ed1c1,38,male,0,1,75,Ambigous_right,3,0,0,0,right,right,right,2,1,1,0.192,13,152,325,0.325,1.775,0
59e7276d5de9b000017ed1c1,38,male,0,1,77,Ambigous_right,3,0,0,0,right,right,right,2,1,1,0.295,13,152,325,0.325,1.775,0
59e7276d5de9b000017ed1c1,38,male,0,1,83,Clear_profit_side,3,0,0,0,right,right,right,2,1,1,0.27399999999999997,13,152,325,0.325,1.775,0
59e7276d5de9b000017ed1c1,38,male,0,1,87,Clear_profit_side,3,0,0,0,right,right,right,2,1,1,0.287,13,152,325,0.325,1.775,0
59e7276d5de9b000017ed1c1,38,male,0,1,88,Clear_profit_side,3,0,0,0,right,right,right,2,1,1,0.201,13,152,325,0.325,1.775,0
59e7276d5de9b000017ed1c1,38,male,0,1,89,Ambigous_right,3,0,0,0,right,right,right,2,1,1,0.179,13,152,325,0.325,1.775,0
59e7276d5de9b000017ed1c1,38,male,0,1,91,Clear_profit_side,3,0,0,0,right,right,right,2,1,1,0.174,13,152,325,0.325,1.775,0
59e7276d5de9b000017ed1c1,38,male,0,1,93,Ambigous_right,3,0,0,0,right,right,right,2,1,1,0.177,13,152,325,0.325,1.775,0
59e7276d5de9b000017ed1c1,38,male,0,1,94,Ambigous_right,3,0,0,0,right,right,right,2,1,1,0.179,13,152,325,0.325,1.775,0
59e7276d5de9b000017ed1c1,38,male,0,1,95,Ambigous_right,3,0,0,0,right,right,right,2,1,1,0.161,13,152,325,0.325,1.775,0
59e7276d5de9b000017ed1c1,38,male,0,1,98,Clear_profit_side,3,0,0,0,right,right,right,2,1,1,0.252,13,152,325,0.325,1.775,0
59e7276d5de9b000017ed1c1,38,male,0,1,99,Ambigous_right,3,0,0,0,right,right,right,2,1,1,0.349,13,152,325,0.325,1.775,0
59e7276d5de9b000017ed1c1,38,male,0,2,2,Ambigous_right,3,0,0,0,right,right,right,2,1,1,0.294,34,173,325,0.325,1.775,0
59e7276d5de9b000017ed1c1,38,male,0,2,5,Ambigous_right,3,0,0,0,right,right,right,2,1,1,0.17600000000000002,34,173,325,0.325,1.775,0
59e7276d5de9b000017ed1c1,38,male,0,2,6,Clear_profit_side,3,0,0,0,right,right,right,2,1,1,0.19399999999999998,34,173,325,0.325,1.775,0
59e7276d5de9b000017ed1c1,38,male,0,2,7,Clear_profit_side,3,0,0,0,right,right,right,2,1,1,0.272,34,173,325,0.325,1.775,0
59e7276d5de9b000017ed1c1,38,male,0,2,11,Clear_profit_side,3,0,0,0,right,right,right,2,1,1,0.225,34,173,325,0.325,1.775,0
59e7276d5de9b000017ed1c1,38,male,0,2,16,Clear_profit_side,3,0,0,0,right,right,right,2,1,1,0.21100000000000002,34,173,325,0.325,1.775,0
59e7276d5de9b000017ed1c1,38,male,0,2,19,Clear_profit_side,3,0,0,0,right,right,right,2,1,1,0.314,34,173,325,0.325,1.775,0
59e7276d5de9b000017ed1c1,38,male,0,2,20,Ambigous_right,3,0,0,0,right,right,right,2,1,1,0.162,34,173,325,0.325,1.775,0
59e7276d5de9b000017ed1c1,38,male,0,2,24,Ambigous_right,3,0,0,0,right,right,right,2,1,1,0.215,34,173,325,0.325,1.775,0
59e7276d5de9b000017ed1c1,38,male,0,2,25,Clear_profit_side,3,0,0,0,right,right,right,2,1,1,0.159,34,173,325,0.325,1.775,0
59e7276d5de9b000017ed1c1,38,male,0,2,31,Clear_profit_side,3,0,0,0,right,right,right,2,1,1,0.188,34,173,325,0.325,1.775,0
59e7276d5de9b000017ed1c1,38,male,0,2,32,Clear_profit_side,3,0,0,0,right,right,right,2,1,1,0.16,34,173,325,0.325,1.775,0
59e7276d5de9b000017ed1c1,38,male,0,2,34,Ambigous_right,3,0,0,0,right,right,right,2,1,1,0.22399999999999998,34,173,325,0.325,1.775,0
59e7276d5de9b000017ed1c1,38,male,0,2,36,Ambigous_right,3,0,0,0,right,right,right,2,1,1,0.177,34,173,325,0.325,1.775,0
59e7276d5de9b000017ed1c1,38,male,0,2,42,Clear_profit_side,3,0,0,0,right,right,right,2,1,1,0.22,34,173,325,0.325,1.775,0
59e7276d5de9b000017ed1c1,38,male,0,2,43,Ambigous_right,3,0,0,0,right,right,right,2,1,1,0.183,34,173,325,0.325,1.775,0
59e7276d5de9b000017ed1c1,38,male,0,2,45,Ambigous_right,3,0,0,0,right,right,right,2,1,1,0.32,34,173,325,0.325,1.775,0
59e7276d5de9b000017ed1c1,38,male,0,2,47,Ambigous_right,3,0,0,0,right,right,right,2,1,1,0.19899999999999998,34,173,325,0.325,1.775,0
59e7276d5de9b000017ed1c1,38,male,0,2,48,Ambigous_right,3,0,0,0,right,right,right,2,1,1,0.205,34,173,325,0.325,1.775,0
59e7276d5de9b000017ed1c1,38,male,0,2,49,Ambigous_right,3,0,0,0,right,right,right,2,1,1,0.14400000000000002,34,173,325,0.325,1.775,0
59e7276d5de9b000017ed1c1,38,male,0,2,50,Ambigous_right,3,0,0,0,right,right,right,2,1,1,0.145,34,173,325,0.325,1.775,0
59e7276d5de9b000017ed1c1,38,male,0,2,51,Ambigous_right,3,0,0,0,right,right,right,2,1,1,0.205,34,173,325,0.325,1.775,0
59e7276d5de9b000017ed1c1,38,male,0,2,52,Ambigous_right,3,0,0,0,right,right,left,1,2,0,0.39399999999999996,34,173,325,0.325,1.775,1
59e7276d5de9b000017ed1c1,38,male,0,2,55,Ambigous_right,3,0,0,0,right,right,right,2,1,1,0.24100000000000002,34,173,325,0.325,1.775,0
59e7276d5de9b000017ed1c1,38,male,0,2,63,Ambigous_right,3,0,0,0,right,right,right,2,1,1,0.36700000000000005,34,173,325,0.325,1.775,0
59e7276d5de9b000017ed1c1,38,male,0,2,66,Ambigous_right,3,0,0,0,right,right,right,2,1,1,0.23199999999999998,34,173,325,0.325,1.775,0
59e7276d5de9b000017ed1c1,38,male,0,2,68,Ambigous_right,3,0,0,0,right,right,right,2,1,1,0.168,34,173,325,0.325,1.775,0
59e7276d5de9b000017ed1c1,38,male,0,2,69,Clear_profit_side,3,0,0,0,right,right,right,2,1,1,0.248,34,173,325,0.325,1.775,0
59e7276d5de9b000017ed1c1,38,male,0,2,70,Clear_profit_side,3,0,0,0,right,right,right,2,1,1,0.15,34,173,325,0.325,1.775,0
59e7276d5de9b000017ed1c1,38,male,0,2,73,Clear_profit_side,3,0,0,0,right,right,right,2,1,1,0.147,34,173,325,0.325,1.775,0
59e7276d5de9b000017ed1c1,38,male,0,2,74,Clear_profit_side,3,0,0,0,right,right,right,2,1,1,0.135,34,173,325,0.325,1.775,0
59e7276d5de9b000017ed1c1,38,male,0,2,76,Ambigous_right,3,0,0,0,right,right,right,2,1,1,0.287,34,173,325,0.325,1.775,0
59e7276d5de9b000017ed1c1,38,male,0,2,77,Clear_profit_side,3,0,0,0,right,right,right,2,1,1,0.42200000000000004,34,173,325,0.325,1.775,0
59e7276d5de9b000017ed1c1,38,male,0,2,80,Ambigous_right,3,0,0,0,right,right,right,2,1,1,0.371,34,173,325,0.325,1.775,0
59e7276d5de9b000017ed1c1,38,male,0,2,81,Clear_profit_side,3,0,0,0,right,right,right,2,1,1,0.145,34,173,325,0.325,1.775,0
59e7276d5de9b000017ed1c1,38,male,0,2,84,Ambigous_right,3,0,0,0,right,right,right,2,1,1,0.146,34,173,325,0.325,1.775,0
59e7276d5de9b000017ed1c1,38,male,0,2,89,Ambigous_right,3,0,0,0,right,right,right,2,1,1,0.325,34,173,325,0.325,1.775,0
59e7276d5de9b000017ed1c1,38,male,0,2,90,Ambigous_right,3,0,0,0,right,right,right,2,1,1,0.153,34,173,325,0.325,1.775,0
59e7276d5de9b000017ed1c1,38,male,0,2,94,Clear_profit_side,3,0,0,0,right,right,right,2,1,1,0.154,34,173,325,0.325,1.775,0
59e7276d5de9b000017ed1c1,38,male,0,2,95,Ambigous_right,3,0,0,0,right,right,right,2,1,1,0.157,34,173,325,0.325,1.775,0
59e7276d5de9b000017ed1c1,38,male,0,2,99,Ambigous_right,3,0,0,0,right,right,right,2,1,1,0.221,34,173,325,0.325,1.775,0
5b01842bc573030001c345e0,44,male,1,1,3,Clear_profit_side,1,90,1,20,right,right,right,20,-19,1,0.387,19,784,1597,1.597,3.047,0
5b01842bc573030001c345e0,44,male,1,1,6,Clear_profit_side,1,90,1,20,right,right,right,20,-19,1,0.161,19,784,1597,1.597,3.047,0
5b01842bc573030001c345e0,44,male,1,1,7,Ambigous_right,1,90,1,20,right,right,right,20,-19,1,0.149,19,784,1597,1.597,3.047,0
5b01842bc573030001c345e0,44,male,1,1,8,Ambigous_right,1,90,1,20,right,right,right,20,-19,1,0.17300000000000001,19,784,1597,1.597,3.047,0
5b01842bc573030001c345e0,44,male,1,1,9,Ambigous_right,1,90,1,20,right,right,right,20,-19,1,0.126,19,784,1597,1.597,3.047,0
5b01842bc573030001c345e0,44,male,1,1,12,Ambigous_right,1,90,1,20,right,right,right,20,-19,1,0.12,19,784,1597,1.597,3.047,0
5b01842bc573030001c345e0,44,male,1,1,14,Ambigous_right,1,90,1,20,right,right,right,20,-19,1,0.107,19,784,1597,1.597,3.047,0
5b01842bc573030001c345e0,44,male,1,1,18,Clear_profit_side,1,90,1,20,right,right,right,20,-19,1,0.071,19,784,1597,1.597,3.047,0
5b01842bc573030001c345e0,44,male,1,1,19,Ambigous_right,1,90,1,20,right,right,right,20,-19,1,0.107,19,784,1597,1.597,3.047,0
5b01842bc573030001c345e0,44,male,1,1,21,Ambigous_right,1,90,1,20,right,right,right,20,-19,1,0.11,19,784,1597,1.597,3.047,0
5b01842bc573030001c345e0,44,male,1,1,23,Ambigous_right,1,90,1,20,right,right,right,20,-19,1,0.08,19,784,1597,1.597,3.047,0
5b01842bc573030001c345e0,44,male,1,1,27,Ambigous_right,1,90,1,20,right,right,right,20,-19,1,0.172,19,784,1597,1.597,3.047,0
5b01842bc573030001c345e0,44,male,1,1,28,Ambigous_right,1,90,0,0,right,right,right,20,1,1,0.135,19,784,1597,1.597,3.047,0
5b01842bc573030001c345e0,44,male,1,1,29,Clear_profit_side,1,90,1,20,right,right,right,20,-19,1,0.109,19,784,1597,1.597,3.047,0
5b01842bc573030001c345e0,44,male,1,1,37,Ambigous_right,1,90,1,20,right,right,right,20,-19,1,0.14,19,784,1597,1.597,3.047,0
5b01842bc573030001c345e0,44,male,1,1,39,Clear_profit_side,1,90,1,20,right,right,right,20,-19,1,0.141,19,784,1597,1.597,3.047,0
5b01842bc573030001c345e0,44,male,1,1,43,Clear_profit_side,1,90,1,20,right,right,right,20,-19,1,0.109,19,784,1597,1.597,3.047,0
5b01842bc573030001c345e0,44,male,1,1,45,Clear_profit_side,1,90,1,20,right,right,right,20,-19,1,0.121,19,784,1597,1.597,3.047,0
5b01842bc573030001c345e0,44,male,1,1,46,Clear_profit_side,1,90,1,20,right,right,right,20,-19,1,0.113,19,784,1597,1.597,3.047,0
5b01842bc573030001c345e0,44,male,1,1,48,Clear_profit_side,1,90,1,20,right,right,right,20,-19,1,0.071,19,784,1597,1.597,3.047,0
5b01842bc573030001c345e0,44,male,1,1,50,Ambigous_right,1,90,1,20,right,right,right,20,-19,1,0.261,19,784,1597,1.597,3.047,0
5b01842bc573030001c345e0,44,male,1,1,51,Ambigous_right,1,90,1,20,right,right,right,20,-19,1,0.18,19,784,1597,1.597,3.047,0
5b01842bc573030001c345e0,44,male,1,1,52,Ambigous_right,1,90,1,20,right,right,right,20,-19,1,0.11,19,784,1597,1.597,3.047,0
5b01842bc573030001c345e0,44,male,1,1,56,Ambigous_right,1,90,1,20,right,right,right,20,-19,1,0.147,19,784,1597,1.597,3.047,0
5b01842bc573030001c345e0,44,male,1,1,60,Clear_profit_side,1,90,0,0,right,right,right,20,1,1,0.121,19,784,1597,1.597,3.047,0
5b01842bc573030001c345e0,44,male,1,1,61,Ambigous_right,1,90,1,20,right,right,left,-19,0,0,0.289,19,784,1597,1.597,3.047,1
5b01842bc573030001c345e0,44,male,1,1,62,Clear_profit_side,1,90,1,20,right,right,right,20,-19,1,0.11,19,784,1597,1.597,3.047,0
5b01842bc573030001c345e0,44,male,1,1,70,Clear_profit_side,1,90,1,20,right,right,right,20,-19,1,0.141,19,784,1597,1.597,3.047,0
5b01842bc573030001c345e0,44,male,1,1,71,Ambigous_right,1,90,1,20,right,right,right,20,-19,1,0.179,19,784,1597,1.597,3.047,0
5b01842bc573030001c345e0,44,male,1,1,72,Clear_profit_side,1,90,1,20,right,right,right,20,-19,1,0.126,19,784,1597,1.597,3.047,0
5b01842bc573030001c345e0,44,male,1,1,77,Ambigous_right,1,90,1,20,right,right,right,20,-19,1,0.135,19,784,1597,1.597,3.047,0
5b01842bc573030001c345e0,44,male,1,1,78,Clear_profit_side,1,90,1,20,right,right,right,20,-19,1,0.125,19,784,1597,1.597,3.047,0
5b01842bc573030001c345e0,44,male,1,1,79,Ambigous_right,1,90,1,20,right,right,right,20,-19,1,0.217,19,784,1597,1.597,3.047,0
5b01842bc573030001c345e0,44,male,1,1,80,Ambigous_right,1,90,1,20,right,right,left,-19,0,0,0.247,19,784,1597,1.597,3.047,1
5b01842bc573030001c345e0,44,male,1,1,81,Clear_profit_side,1,90,1,20,right,right,right,20,-19,1,0.11699999999999999,19,784,1597,1.597,3.047,0
5b01842bc573030001c345e0,44,male,1,1,88,Ambigous_right,1,90,0,0,right,right,right,20,1,1,0.13,19,784,1597,1.597,3.047,0
5b01842bc573030001c345e0,44,male,1,1,93,Clear_profit_side,1,90,1,20,right,right,right,20,-19,1,0.135,19,784,1597,1.597,3.047,0
5b01842bc573030001c345e0,44,male,1,1,96,Ambigous_right,1,90,1,20,right,right,right,20,-19,1,0.128,19,784,1597,1.597,3.047,0
5b01842bc573030001c345e0,44,male,1,1,98,Ambigous_right,1,90,1,20,right,right,right,20,-19,1,0.133,19,784,1597,1.597,3.047,0
5b01842bc573030001c345e0,44,male,1,1,99,Ambigous_right,1,90,1,20,right,right,right,20,-19,1,0.13,19,784,1597,1.597,3.047,0
5b01842bc573030001c345e0,44,male,1,1,100,Ambigous_right,1,90,1,20,right,right,right,20,-19,1,0.129,19,784,1597,1.597,3.047,0
5b01842bc573030001c345e0,44,male,1,2,2,Ambigous_right,1,90,1,20,right,right,right,20,-19,1,0.126,10,813,1597,1.597,3.047,0
5b01842bc573030001c345e0,44,male,1,2,6,Clear_profit_side,1,90,1,20,right,right,right,20,-19,1,0.11900000000000001,10,813,1597,1.597,3.047,0
5b01842bc573030001c345e0,44,male,1,2,7,Clear_profit_side,1,90,1,20,right,right,right,20,-19,1,0.14400000000000002,10,813,1597,1.597,3.047,0
5b01842bc573030001c345e0,44,male,1,2,10,Ambigous_right,1,90,1,20,right,right,right,20,-19,1,0.141,10,813,1597,1.597,3.047,0
5b01842bc573030001c345e0,44,male,1,2,14,Ambigous_right,1,90,1,20,right,right,right,20,-19,1,0.129,10,813,1597,1.597,3.047,0
5b01842bc573030001c345e0,44,male,1,2,15,Ambigous_right,1,90,1,20,right,right,right,20,-19,1,0.122,10,813,1597,1.597,3.047,0
5b01842bc573030001c345e0,44,male,1,2,19,Ambigous_right,1,90,1,20,right,right,right,20,-19,1,0.081,10,813,1597,1.597,3.047,0
5b01842bc573030001c345e0,44,male,1,2,20,Clear_profit_side,1,90,0,0,right,right,right,20,1,1,0.11699999999999999,10,813,1597,1.597,3.047,0
5b01842bc573030001c345e0,44,male,1,2,24,Ambigous_right,1,90,1,20,right,right,right,20,-19,1,0.12300000000000001,10,813,1597,1.597,3.047,0
5b01842bc573030001c345e0,44,male,1,2,26,Ambigous_right,1,90,0,0,right,right,right,20,1,1,0.098,10,813,1597,1.597,3.047,0
5b01842bc573030001c345e0,44,male,1,2,29,Ambigous_right,1,90,1,20,right,right,right,20,-19,1,0.126,10,813,1597,1.597,3.047,0
5b01842bc573030001c345e0,44,male,1,2,33,Ambigous_right,1,90,1,20,right,right,right,20,-19,1,0.155,10,813,1597,1.597,3.047,0
5b01842bc573030001c345e0,44,male,1,2,35,Ambigous_right,1,90,1,20,right,right,right,20,-19,1,0.124,10,813,1597,1.597,3.047,0
5b01842bc573030001c345e0,44,male,1,2,37,Clear_profit_side,1,90,1,20,right,right,right,20,-19,1,0.077,10,813,1597,1.597,3.047,0
5b01842bc573030001c345e0,44,male,1,2,39,Ambigous_right,1,90,1,20,right,right,right,20,-19,1,0.134,10,813,1597,1.597,3.047,0
5b01842bc573030001c345e0,44,male,1,2,40,Ambigous_right,1,90,1,20,right,right,right,20,-19,1,0.12,10,813,1597,1.597,3.047,0
5b01842bc573030001c345e0,44,male,1,2,41,Ambigous_right,1,90,1,20,right,right,right,20,-19,1,0.12300000000000001,10,813,1597,1.597,3.047,0
5b01842bc573030001c345e0,44,male,1,2,43,Ambigous_right,1,90,1,20,right,right,right,20,-19,1,0.086,10,813,1597,1.597,3.047,0
5b01842bc573030001c345e0,44,male,1,2,46,Clear_profit_side,1,90,1,20,right,right,right,20,-19,1,0.125,10,813,1597,1.597,3.047,0
5b01842bc573030001c345e0,44,male,1,2,48,Ambigous_right,1,90,1,20,right,right,right,20,-19,1,0.105,10,813,1597,1.597,3.047,0
5b01842bc573030001c345e0,44,male,1,2,50,Ambigous_right,1,90,0,0,right,right,right,20,1,1,0.204,10,813,1597,1.597,3.047,0
5b01842bc573030001c345e0,44,male,1,2,53,Clear_profit_side,1,90,1,20,right,right,right,20,-19,1,0.114,10,813,1597,1.597,3.047,0
5b01842bc573030001c345e0,44,male,1,2,54,Clear_profit_side,1,90,1,20,right,right,right,20,-19,1,0.125,10,813,1597,1.597,3.047,0
5b01842bc573030001c345e0,44,male,1,2,55,Ambigous_right,1,90,1,20,right,right,right,20,-19,1,0.122,10,813,1597,1.597,3.047,0
5b01842bc573030001c345e0,44,male,1,2,56,Clear_profit_side,1,90,1,20,right,right,right,20,-19,1,0.10800000000000001,10,813,1597,1.597,3.047,0
5b01842bc573030001c345e0,44,male,1,2,57,Clear_profit_side,1,90,1,20,right,right,right,20,-19,1,0.091,10,813,1597,1.597,3.047,0
5b01842bc573030001c345e0,44,male,1,2,63,Clear_profit_side,1,90,1,20,right,right,right,20,-19,1,0.105,10,813,1597,1.597,3.047,0
5b01842bc573030001c345e0,44,male,1,2,67,Ambigous_right,1,90,1,20,right,right,right,20,-19,1,0.124,10,813,1597,1.597,3.047,0
5b01842bc573030001c345e0,44,male,1,2,69,Ambigous_right,1,90,1,20,right,right,left,-19,0,0,0.149,10,813,1597,1.597,3.047,1
5b01842bc573030001c345e0,44,male,1,2,72,Ambigous_right,1,90,1,20,right,right,right,20,-19,1,0.124,10,813,1597,1.597,3.047,0
5b01842bc573030001c345e0,44,male,1,2,75,Ambigous_right,1,90,1,20,right,right,right,20,-19,1,0.128,10,813,1597,1.597,3.047,0
5b01842bc573030001c345e0,44,male,1,2,78,Clear_profit_side,1,90,1,20,right,right,right,20,-19,1,0.1,10,813,1597,1.597,3.047,0
5b01842bc573030001c345e0,44,male,1,2,79,Clear_profit_side,1,90,0,0,right,right,right,20,1,1,0.252,10,813,1597,1.597,3.047,0
5b01842bc573030001c345e0,44,male,1,2,81,Ambigous_right,1,90,0,0,right,right,left,1,20,0,0.415,10,813,1597,1.597,3.047,1
5b01842bc573030001c345e0,44,male,1,2,85,Ambigous_right,1,90,1,20,right,right,right,20,-19,1,0.12,10,813,1597,1.597,3.047,0
5b01842bc573030001c345e0,44,male,1,2,88,Clear_profit_side,1,90,1,20,right,right,right,20,-19,1,0.21,10,813,1597,1.597,3.047,0
5b01842bc573030001c345e0,44,male,1,2,89,Clear_profit_side,1,90,1,20,right,right,right,20,-19,1,0.11800000000000001,10,813,1597,1.597,3.047,0
5b01842bc573030001c345e0,44,male,1,2,90,Clear_profit_side,1,90,1,20,right,right,right,20,-19,1,0.11199999999999999,10,813,1597,1.597,3.047,0
5b01842bc573030001c345e0,44,male,1,2,94,Clear_profit_side,1,90,1,20,right,right,right,20,-19,1,0.11599999999999999,10,813,1597,1.597,3.047,0
5b01842bc573030001c345e0,44,male,1,2,96,Ambigous_right,1,90,1,20,right,right,right,20,-19,1,0.128,10,813,1597,1.597,3.047,0
5b01842bc573030001c345e0,44,male,1,2,98,Ambigous_right,1,90,0,0,right,right,right,20,1,1,0.115,10,813,1597,1.597,3.047,0
5c8d2f74e775150016db3700,20,female,0,1,4,Ambigous_left,1,90,1,20,left,left,left,20,-19,1,0.278,5,760,1553,1.5530000000000002,3.003,0
5c8d2f74e775150016db3700,20,female,0,1,5,Ambigous_left,1,90,0,0,left,left,left,20,1,1,0.387,5,760,1553,1.5530000000000002,3.003,0
5c8d2f74e775150016db3700,20,female,0,1,6,Ambigous_left,1,90,1,20,left,left,left,20,-19,1,0.22899999999999998,5,760,1553,1.5530000000000002,3.003,0
5c8d2f74e775150016db3700,20,female,0,1,7,Ambigous_left,1,90,1,20,left,left,left,20,-19,1,0.293,5,760,1553,1.5530000000000002,3.003,0
5c8d2f74e775150016db3700,20,female,0,1,8,Ambigous_left,1,90,1,20,left,left,left,20,-19,1,0.46,5,760,1553,1.5530000000000002,3.003,0
5c8d2f74e775150016db3700,20,female,0,1,12,Ambigous_left,1,90,1,20,left,left,left,20,-19,1,0.223,5,760,1553,1.5530000000000002,3.003,0
5c8d2f74e775150016db3700,20,female,0,1,14,Ambigous_left,1,90,1,20,left,left,left,20,-19,1,0.423,5,760,1553,1.5530000000000002,3.003,0
5c8d2f74e775150016db3700,20,female,0,1,15,Ambigous_left,1,90,1,20,left,left,left,20,-19,1,0.336,5,760,1553,1.5530000000000002,3.003,0
5c8d2f74e775150016db3700,20,female,0,1,17,Ambigous_left,1,90,1,20,left,left,left,20,-19,1,0.233,5,760,1553,1.5530000000000002,3.003,0
5c8d2f74e775150016db3700,20,female,0,1,20,Ambigous_left,1,90,1,20,left,left,left,20,-19,1,0.222,5,760,1553,1.5530000000000002,3.003,0
5c8d2f74e775150016db3700,20,female,0,1,22,Ambigous_left,1,90,1,20,left,left,left,20,-19,1,0.391,5,760,1553,1.5530000000000002,3.003,0
5c8d2f74e775150016db3700,20,female,0,1,25,Ambigous_left,1,90,1,20,left,left,left,20,-19,1,0.222,5,760,1553,1.5530000000000002,3.003,0
5c8d2f74e775150016db3700,20,female,0,1,28,Clear_profit_side,1,90,1,20,left,left,left,20,-19,1,0.19699999999999998,5,760,1553,1.5530000000000002,3.003,0
5c8d2f74e775150016db3700,20,female,0,1,32,Ambigous_left,1,90,1,20,left,left,right,-19,0,0,0.139,5,760,1553,1.5530000000000002,3.003,1
5c8d2f74e775150016db3700,20,female,0,1,33,Clear_profit_side,1,90,1,20,left,left,left,20,-19,1,0.19399999999999998,5,760,1553,1.5530000000000002,3.003,0
5c8d2f74e775150016db3700,20,female,0,1,34,Clear_profit_side,1,90,1,20,left,left,left,20,-19,1,0.188,5,760,1553,1.5530000000000002,3.003,0
5c8d2f74e775150016db3700,20,female,0,1,36,Ambigous_left,1,90,1,20,left,left,left,20,-19,1,0.201,5,760,1553,1.5530000000000002,3.003,0
5c8d2f74e775150016db3700,20,female,0,1,37,Ambigous_left,1,90,1,20,left,left,left,20,-19,1,0.299,5,760,1553,1.5530000000000002,3.003,0
5c8d2f74e775150016db3700,20,female,0,1,39,Clear_profit_side,1,90,1,20,left,left,left,20,-19,1,0.16899999999999998,5,760,1553,1.5530000000000002,3.003,0
5c8d2f74e775150016db3700,20,female,0,1,40,Clear_profit_side,1,90,1,20,left,left,left,20,-19,1,0.162,5,760,1553,1.5530000000000002,3.003,0
5c8d2f74e775150016db3700,20,female,0,1,41,Clear_profit_side,1,90,1,20,left,left,left,20,-19,1,0.168,5,760,1553,1.5530000000000002,3.003,0
5c8d2f74e775150016db3700,20,female,0,1,43,Clear_profit_side,1,90,1,20,left,left,left,20,-19,1,0.14400000000000002,5,760,1553,1.5530000000000002,3.003,0
5c8d2f74e775150016db3700,20,female,0,1,46,Clear_profit_side,1,90,1,20,left,left,left,20,-19,1,0.154,5,760,1553,1.5530000000000002,3.003,0
5c8d2f74e775150016db3700,20,female,0,1,52,Clear_profit_side,1,90,1,20,left,left,left,20,-19,1,0.222,5,760,1553,1.5530000000000002,3.003,0
5c8d2f74e775150016db3700,20,female,0,1,54,Ambigous_left,1,90,1,20,left,left,left,20,-19,1,0.131,5,760,1553,1.5530000000000002,3.003,0
5c8d2f74e775150016db3700,20,female,0,1,56,Clear_profit_side,1,90,1,20,left,left,left,20,-19,1,0.159,5,760,1553,1.5530000000000002,3.003,0
5c8d2f74e775150016db3700,20,female,0,1,59,Clear_profit_side,1,90,1,20,left,left,left,20,-19,1,0.15,5,760,1553,1.5530000000000002,3.003,0
5c8d2f74e775150016db3700,20,female,0,1,60,Ambigous_left,1,90,1,20,left,left,right,-19,0,0,0.166,5,760,1553,1.5530000000000002,3.003,1
5c8d2f74e775150016db3700,20,female,0,1,73,Ambigous_left,1,90,1,20,left,left,left,20,-19,1,0.152,5,760,1553,1.5530000000000002,3.003,0
5c8d2f74e775150016db3700,20,female,0,1,79,Ambigous_left,1,90,1,20,left,left,left,20,-19,1,0.3,5,760,1553,1.5530000000000002,3.003,0
5c8d2f74e775150016db3700,20,female,0,1,80,Ambigous_left,1,90,1,20,left,left,right,-19,0,0,0.174,5,760,1553,1.5530000000000002,3.003,1
5c8d2f74e775150016db3700,20,female,0,1,81,Clear_profit_side,1,90,1,20,left,left,left,20,-19,1,0.242,5,760,1553,1.5530000000000002,3.003,0
5c8d2f74e775150016db3700,20,female,0,1,82,Clear_profit_side,1,90,1,20,left,left,left,20,-19,1,0.184,5,760,1553,1.5530000000000002,3.003,0
5c8d2f74e775150016db3700,20,female,0,1,83,Ambigous_left,1,90,1,20,left,left,left,20,-19,1,0.152,5,760,1553,1.5530000000000002,3.003,0
5c8d2f74e775150016db3700,20,female,0,1,84,Ambigous_left,1,90,1,20,left,left,left,20,-19,1,0.27899999999999997,5,760,1553,1.5530000000000002,3.003,0
5c8d2f74e775150016db3700,20,female,0,1,87,Clear_profit_side,1,90,1,20,left,left,left,20,-19,1,0.18600000000000003,5,760,1553,1.5530000000000002,3.003,0
5c8d2f74e775150016db3700,20,female,0,1,90,Ambigous_left,1,90,1,20,left,left,left,20,-19,1,0.16699999999999998,5,760,1553,1.5530000000000002,3.003,0
5c8d2f74e775150016db3700,20,female,0,1,94,Clear_profit_side,1,90,1,20,left,left,left,20,-19,1,0.14300000000000002,5,760,1553,1.5530000000000002,3.003,0
5c8d2f74e775150016db3700,20,female,0,1,95,Ambigous_left,1,90,1,20,left,left,left,20,-19,1,0.159,5,760,1553,1.5530000000000002,3.003,0
5c8d2f74e775150016db3700,20,female,0,1,96,Clear_profit_side,1,90,1,20,left,left,left,20,-19,1,0.152,5,760,1553,1.5530000000000002,3.003,0
5c8d2f74e775150016db3700,20,female,0,1,97,Ambigous_left,1,90,1,20,left,left,left,20,-19,1,0.156,5,760,1553,1.5530000000000002,3.003,0
5c8d2f74e775150016db3700,20,female,0,2,12,Clear_profit_side,1,90,1,20,left,left,left,20,-19,1,0.147,10,793,1553,1.5530000000000002,3.003,0
5c8d2f74e775150016db3700,20,female,0,2,15,Clear_profit_side,1,90,1,20,left,left,left,20,-19,1,0.134,10,793,1553,1.5530000000000002,3.003,0
5c8d2f74e775150016db3700,20,female,0,2,17,Clear_profit_side,1,90,1,20,left,left,left,20,-19,1,0.146,10,793,1553,1.5530000000000002,3.003,0
5c8d2f74e775150016db3700,20,female,0,2,18,Ambigous_left,1,90,1,20,left,left,left,20,-19,1,0.146,10,793,1553,1.5530000000000002,3.003,0
5c8d2f74e775150016db3700,20,female,0,2,19,Ambigous_left,1,90,1,20,left,left,left,20,-19,1,0.15,10,793,1553,1.5530000000000002,3.003,0
5c8d2f74e775150016db3700,20,female,0,2,23,Ambigous_left,1,90,0,0,left,left,left,20,1,1,0.26,10,793,1553,1.5530000000000002,3.003,0
5c8d2f74e775150016db3700,20,female,0,2,24,Ambigous_left,1,90,1,20,left,left,left,20,-19,1,0.184,10,793,1553,1.5530000000000002,3.003,0
5c8d2f74e775150016db3700,20,female,0,2,26,Clear_profit_side,1,90,1,20,left,left,left,20,-19,1,0.171,10,793,1553,1.5530000000000002,3.003,0
5c8d2f74e775150016db3700,20,female,0,2,29,Clear_profit_side,1,90,0,0,left,left,left,20,1,1,0.129,10,793,1553,1.5530000000000002,3.003,0
5c8d2f74e775150016db3700,20,female,0,2,30,Clear_profit_side,1,90,0,0,left,left,left,20,1,1,0.147,10,793,1553,1.5530000000000002,3.003,0
5c8d2f74e775150016db3700,20,female,0,2,31,Ambigous_left,1,90,1,20,left,left,left,20,-19,1,0.141,10,793,1553,1.5530000000000002,3.003,0
5c8d2f74e775150016db3700,20,female,0,2,32,Ambigous_left,1,90,1,20,left,left,left,20,-19,1,0.16899999999999998,10,793,1553,1.5530000000000002,3.003,0
5c8d2f74e775150016db3700,20,female,0,2,33,Ambigous_left,1,90,1,20,left,left,right,-19,0,0,0.16,10,793,1553,1.5530000000000002,3.003,1
5c8d2f74e775150016db3700,20,female,0,2,38,Clear_profit_side,1,90,1,20,left,left,left,20,-19,1,0.141,10,793,1553,1.5530000000000002,3.003,0
5c8d2f74e775150016db3700,20,female,0,2,40,Clear_profit_side,1,90,1,20,left,left,left,20,-19,1,0.139,10,793,1553,1.5530000000000002,3.003,0
5c8d2f74e775150016db3700,20,female,0,2,42,Ambigous_left,1,90,0,0,left,left,left,20,1,1,0.135,10,793,1553,1.5530000000000002,3.003,0
5c8d2f74e775150016db3700,20,female,0,2,43,Ambigous_left,1,90,1,20,left,left,left,20,-19,1,0.13699999999999998,10,793,1553,1.5530000000000002,3.003,0
5c8d2f74e775150016db3700,20,female,0,2,45,Ambigous_left,1,90,1,20,left,left,left,20,-19,1,0.11599999999999999,10,793,1553,1.5530000000000002,3.003,0
5c8d2f74e775150016db3700,20,female,0,2,46,Ambigous_left,1,90,1,20,left,left,left,20,-19,1,0.149,10,793,1553,1.5530000000000002,3.003,0
5c8d2f74e775150016db3700,20,female,0,2,52,Ambigous_left,1,90,1,20,left,left,left,20,-19,1,0.136,10,793,1553,1.5530000000000002,3.003,0
5c8d2f74e775150016db3700,20,female,0,2,55,Clear_profit_side,1,90,1,20,left,left,left,20,-19,1,0.157,10,793,1553,1.5530000000000002,3.003,0
5c8d2f74e775150016db3700,20,female,0,2,56,Ambigous_left,1,90,1,20,left,left,left,20,-19,1,0.17300000000000001,10,793,1553,1.5530000000000002,3.003,0
5c8d2f74e775150016db3700,20,female,0,2,58,Ambigous_left,1,90,1,20,left,left,left,20,-19,1,0.154,10,793,1553,1.5530000000000002,3.003,0
5c8d2f74e775150016db3700,20,female,0,2,59,Clear_profit_side,1,90,1,20,left,left,left,20,-19,1,0.147,10,793,1553,1.5530000000000002,3.003,0
5c8d2f74e775150016db3700,20,female,0,2,60,Ambigous_left,1,90,1,20,left,left,left,20,-19,1,0.14,10,793,1553,1.5530000000000002,3.003,0
5c8d2f74e775150016db3700,20,female,0,2,65,Ambigous_left,1,90,1,20,left,left,left,20,-19,1,0.142,10,793,1553,1.5530000000000002,3.003,0
5c8d2f74e775150016db3700,20,female,0,2,67,Ambigous_left,1,90,1,20,left,left,left,20,-19,1,0.133,10,793,1553,1.5530000000000002,3.003,0
5c8d2f74e775150016db3700,20,female,0,2,68,Clear_profit_side,1,90,0,0,left,left,left,20,1,1,0.132,10,793,1553,1.5530000000000002,3.003,0
5c8d2f74e775150016db3700,20,female,0,2,70,Clear_profit_side,1,90,1,20,left,left,left,20,-19,1,0.125,10,793,1553,1.5530000000000002,3.003,0
5c8d2f74e775150016db3700,20,female,0,2,72,Clear_profit_side,1,90,1,20,left,left,left,20,-19,1,0.136,10,793,1553,1.5530000000000002,3.003,0
5c8d2f74e775150016db3700,20,female,0,2,79,Ambigous_left,1,90,1,20,left,left,left,20,-19,1,0.166,10,793,1553,1.5530000000000002,3.003,0
5c8d2f74e775150016db3700,20,female,0,2,80,Clear_profit_side,1,90,1,20,left,left,left,20,-19,1,0.153,10,793,1553,1.5530000000000002,3.003,0
5c8d2f74e775150016db3700,20,female,0,2,81,Ambigous_left,1,90,1,20,left,left,left,20,-19,1,0.138,10,793,1553,1.5530000000000002,3.003,0
5c8d2f74e775150016db3700,20,female,0,2,85,Ambigous_left,1,90,1,20,left,left,left,20,-19,1,0.139,10,793,1553,1.5530000000000002,3.003,0
5c8d2f74e775150016db3700,20,female,0,2,87,Clear_profit_side,1,90,1,20,left,left,left,20,-19,1,0.13699999999999998,10,793,1553,1.5530000000000002,3.003,0
5c8d2f74e775150016db3700,20,female,0,2,92,Ambigous_left,1,90,1,20,left,left,left,20,-19,1,0.16,10,793,1553,1.5530000000000002,3.003,0
5c8d2f74e775150016db3700,20,female,0,2,93,Clear_profit_side,1,90,1,20,left,left,left,20,-19,1,0.188,10,793,1553,1.5530000000000002,3.003,0
5c8d2f74e775150016db3700,20,female,0,2,97,Ambigous_left,1,90,1,20,left,left,left,20,-19,1,0.207,10,793,1553,1.5530000000000002,3.003,0
5c8d2f74e775150016db3700,20,female,0,2,98,Ambigous_left,1,90,1,20,left,left,left,20,-19,1,0.165,10,793,1553,1.5530000000000002,3.003,0
5c8d2f74e775150016db3700,20,female,0,2,99,Ambigous_left,1,90,1,20,left,left,right,-19,0,0,0.188,10,793,1553,1.5530000000000002,3.003,1
5c8d2f74e775150016db3700,20,female,0,2,100,Ambigous_left,1,90,0,0,left,left,left,20,1,1,0.18899999999999997,10,793,1553,1.5530000000000002,3.003,0
5c91c01129b394001a4e473b,23,male,1,1,1,Clear_profit_side,3,0,0,0,right,right,left,1,2,0,0.551,8,137,283,0.28300000000000003,1.733,1
5c91c01129b394001a4e473b,23,male,1,1,3,Ambigous_right,3,0,0,0,right,right,right,2,1,1,0.297,8,137,283,0.28300000000000003,1.733,0
5c91c01129b394001a4e473b,23,male,1,1,5,Ambigous_right,3,0,0,0,right,right,right,2,1,1,0.233,8,137,283,0.28300000000000003,1.733,0
5c91c01129b394001a4e473b,23,male,1,1,10,Clear_profit_side,3,0,0,0,right,right,right,2,1,1,0.154,8,137,283,0.28300000000000003,1.733,0
5c91c01129b394001a4e473b,23,male,1,1,16,Clear_profit_side,3,0,0,0,right,right,right,2,1,1,0.361,8,137,283,0.28300000000000003,1.733,0
5c91c01129b394001a4e473b,23,male,1,1,17,Clear_profit_side,3,0,0,0,right,right,right,2,1,1,0.12300000000000001,8,137,283,0.28300000000000003,1.733,0
5c91c01129b394001a4e473b,23,male,1,1,18,Ambigous_right,3,0,0,0,right,right,right,2,1,1,0.501,8,137,283,0.28300000000000003,1.733,0
5c91c01129b394001a4e473b,23,male,1,1,19,Clear_profit_side,3,0,0,0,right,right,right,2,1,1,0.152,8,137,283,0.28300000000000003,1.733,0
5c91c01129b394001a4e473b,23,male,1,1,21,Ambigous_right,3,0,0,0,right,right,right,2,1,1,0.124,8,137,283,0.28300000000000003,1.733,0
5c91c01129b394001a4e473b,23,male,1,1,25,Ambigous_right,3,0,0,0,right,right,right,2,1,1,0.126,8,137,283,0.28300000000000003,1.733,0
5c91c01129b394001a4e473b,23,male,1,1,29,Clear_profit_side,3,0,0,0,right,right,right,2,1,1,0.107,8,137,283,0.28300000000000003,1.733,0
5c91c01129b394001a4e473b,23,male,1,1,31,Ambigous_right,3,0,0,0,right,right,right,2,1,1,0.153,8,137,283,0.28300000000000003,1.733,0
5c91c01129b394001a4e473b,23,male,1,1,32,Clear_profit_side,3,0,0,0,right,right,right,2,1,1,0.107,8,137,283,0.28300000000000003,1.733,0
5c91c01129b394001a4e473b,23,male,1,1,33,Ambigous_right,3,0,0,0,right,right,right,2,1,1,0.1,8,137,283,0.28300000000000003,1.733,0
5c91c01129b394001a4e473b,23,male,1,1,34,Ambigous_right,3,0,0,0,right,right,left,1,2,0,0.141,8,137,283,0.28300000000000003,1.733,1
5c91c01129b394001a4e473b,23,male,1,1,36,Ambigous_right,3,0,0,0,right,right,right,2,1,1,0.125,8,137,283,0.28300000000000003,1.733,0
5c91c01129b394001a4e473b,23,male,1,1,37,Ambigous_right,3,0,0,0,right,right,right,2,1,1,0.14300000000000002,8,137,283,0.28300000000000003,1.733,0
5c91c01129b394001a4e473b,23,male,1,1,38,Ambigous_right,3,0,0,0,right,right,right,2,1,1,0.14,8,137,283,0.28300000000000003,1.733,0
5c91c01129b394001a4e473b,23,male,1,1,42,Ambigous_right,3,0,0,0,right,right,right,2,1,1,0.132,8,137,283,0.28300000000000003,1.733,0
5c91c01129b394001a4e473b,23,male,1,1,45,Clear_profit_side,3,0,0,0,right,right,right,2,1,1,0.11800000000000001,8,137,283,0.28300000000000003,1.733,0
5c91c01129b394001a4e473b,23,male,1,1,46,Clear_profit_side,3,0,0,0,right,right,right,2,1,1,0.11599999999999999,8,137,283,0.28300000000000003,1.733,0
5c91c01129b394001a4e473b,23,male,1,1,47,Ambigous_right,3,0,0,0,right,right,left,1,2,0,0.16,8,137,283,0.28300000000000003,1.733,1
5c91c01129b394001a4e473b,23,male,1,1,50,Ambigous_right,3,0,0,0,right,right,right,2,1,1,0.209,8,137,283,0.28300000000000003,1.733,0
5c91c01129b394001a4e473b,23,male,1,1,51,Clear_profit_side,3,0,0,0,right,right,right,2,1,1,0.13,8,137,283,0.28300000000000003,1.733,0
5c91c01129b394001a4e473b,23,male,1,1,52,Ambigous_right,3,0,0,0,right,right,right,2,1,1,0.12,8,137,283,0.28300000000000003,1.733,0
5c91c01129b394001a4e473b,23,male,1,1,54,Ambigous_right,3,0,0,0,right,right,right,2,1,1,0.172,8,137,283,0.28300000000000003,1.733,0
5c91c01129b394001a4e473b,23,male,1,1,58,Ambigous_right,3,0,0,0,right,right,right,2,1,1,0.28800000000000003,8,137,283,0.28300000000000003,1.733,0
5c91c01129b394001a4e473b,23,male,1,1,59,Ambigous_right,3,0,0,0,right,right,right,2,1,1,0.265,8,137,283,0.28300000000000003,1.733,0
5c91c01129b394001a4e473b,23,male,1,1,61,Ambigous_right,3,0,0,0,right,right,right,2,1,1,0.145,8,137,283,0.28300000000000003,1.733,0
5c91c01129b394001a4e473b,23,male,1,1,62,Clear_profit_side,3,0,0,0,right,right,right,2,1,1,0.08800000000000001,8,137,283,0.28300000000000003,1.733,0
5c91c01129b394001a4e473b,23,male,1,1,66,Ambigous_right,3,0,0,0,right,right,right,2,1,1,0.139,8,137,283,0.28300000000000003,1.733,0
5c91c01129b394001a4e473b,23,male,1,1,70,Ambigous_right,3,0,0,0,right,right,right,2,1,1,0.134,8,137,283,0.28300000000000003,1.733,0
5c91c01129b394001a4e473b,23,male,1,1,72,Ambigous_right,3,0,0,0,right,right,left,1,2,0,0.12,8,137,283,0.28300000000000003,1.733,1
5c91c01129b394001a4e473b,23,male,1,1,76,Clear_profit_side,3,0,0,0,right,right,right,2,1,1,0.305,8,137,283,0.28300000000000003,1.733,0
5c91c01129b394001a4e473b,23,male,1,1,78,Clear_profit_side,3,0,0,0,right,right,right,2,1,1,0.12,8,137,283,0.28300000000000003,1.733,0
5c91c01129b394001a4e473b,23,male,1,1,79,Clear_profit_side,3,0,0,0,right,right,right,2,1,1,0.10800000000000001,8,137,283,0.28300000000000003,1.733,0
5c91c01129b394001a4e473b,23,male,1,1,80,Clear_profit_side,3,0,0,0,right,right,right,2,1,1,0.228,8,137,283,0.28300000000000003,1.733,0
5c91c01129b394001a4e473b,23,male,1,1,85,Clear_profit_side,3,0,0,0,right,right,right,2,1,1,0.132,8,137,283,0.28300000000000003,1.733,0
5c91c01129b394001a4e473b,23,male,1,1,88,Ambigous_right,3,0,0,0,right,right,left,1,2,0,0.207,8,137,283,0.28300000000000003,1.733,1
5c91c01129b394001a4e473b,23,male,1,1,92,Ambigous_right,3,0,0,0,right,right,right,2,1,1,0.122,8,137,283,0.28300000000000003,1.733,0
5c91c01129b394001a4e473b,23,male,1,1,96,Ambigous_right,3,0,0,0,right,right,left,1,2,0,0.149,8,137,283,0.28300000000000003,1.733,1
5c91c01129b394001a4e473b,23,male,1,2,1,Clear_profit_side,3,0,0,0,right,right,right,2,1,1,0.096,9,146,283,0.28300000000000003,1.733,0
5c91c01129b394001a4e473b,23,male,1,2,2,Ambigous_right,3,0,0,0,right,right,right,2,1,1,0.217,9,146,283,0.28300000000000003,1.733,0
5c91c01129b394001a4e473b,23,male,1,2,4,Clear_profit_side,3,0,0,0,right,right,right,2,1,1,0.10300000000000001,9,146,283,0.28300000000000003,1.733,0
5c91c01129b394001a4e473b,23,male,1,2,5,Ambigous_right,3,0,0,0,right,right,right,2,1,1,0.084,9,146,283,0.28300000000000003,1.733,0
5c91c01129b394001a4e473b,23,male,1,2,10,Clear_profit_side,3,0,0,0,right,right,right,2,1,1,0.099,9,146,283,0.28300000000000003,1.733,0
5c91c01129b394001a4e473b,23,male,1,2,12,Ambigous_right,3,0,0,0,right,right,right,2,1,1,0.081,9,146,283,0.28300000000000003,1.733,0
5c91c01129b394001a4e473b,23,male,1,2,15,Ambigous_right,3,0,0,0,right,right,right,2,1,1,0.105,9,146,283,0.28300000000000003,1.733,0
5c91c01129b394001a4e473b,23,male,1,2,16,Ambigous_right,3,0,0,0,right,right,right,2,1,1,0.107,9,146,283,0.28300000000000003,1.733,0
5c91c01129b394001a4e473b,23,male,1,2,18,Ambigous_right,3,0,0,0,right,right,left,1,2,0,0.18,9,146,283,0.28300000000000003,1.733,1
5c91c01129b394001a4e473b,23,male,1,2,19,Clear_profit_side,3,0,0,0,right,right,right,2,1,1,0.10400000000000001,9,146,283,0.28300000000000003,1.733,0
5c91c01129b394001a4e473b,23,male,1,2,20,Ambigous_right,3,0,0,0,right,right,right,2,1,1,0.11900000000000001,9,146,283,0.28300000000000003,1.733,0
5c91c01129b394001a4e473b,23,male,1,2,24,Ambigous_right,3,0,0,0,right,right,right,2,1,1,0.10400000000000001,9,146,283,0.28300000000000003,1.733,0
5c91c01129b394001a4e473b,23,male,1,2,27,Ambigous_right,3,0,0,0,right,right,left,1,2,0,0.172,9,146,283,0.28300000000000003,1.733,1
5c91c01129b394001a4e473b,23,male,1,2,28,Clear_profit_side,3,0,0,0,right,right,right,2,1,1,0.10400000000000001,9,146,283,0.28300000000000003,1.733,0
5c91c01129b394001a4e473b,23,male,1,2,29,Ambigous_right,3,0,0,0,right,right,right,2,1,1,0.31,9,146,283,0.28300000000000003,1.733,0
5c91c01129b394001a4e473b,23,male,1,2,32,Ambigous_right,3,0,0,0,right,right,right,2,1,1,0.106,9,146,283,0.28300000000000003,1.733,0
5c91c01129b394001a4e473b,23,male,1,2,33,Ambigous_right,3,0,0,0,right,right,right,2,1,1,0.191,9,146,283,0.28300000000000003,1.733,0
5c91c01129b394001a4e473b,23,male,1,2,39,Ambigous_right,3,0,0,0,right,right,right,2,1,1,0.115,9,146,283,0.28300000000000003,1.733,0
5c91c01129b394001a4e473b,23,male,1,2,41,Ambigous_right,3,0,0,0,right,right,right,2,1,1,0.177,9,146,283,0.28300000000000003,1.733,0
5c91c01129b394001a4e473b,23,male,1,2,43,Ambigous_right,3,0,0,0,right,right,right,2,1,1,0.135,9,146,283,0.28300000000000003,1.733,0
5c91c01129b394001a4e473b,23,male,1,2,44,Clear_profit_side,3,0,0,0,right,right,right,2,1,1,0.20199999999999999,9,146,283,0.28300000000000003,1.733,0
5c91c01129b394001a4e473b,23,male,1,2,46,Ambigous_right,3,0,0,0,right,right,right,2,1,1,0.149,9,146,283,0.28300000000000003,1.733,0
5c91c01129b394001a4e473b,23,male,1,2,47,Ambigous_right,3,0,0,0,right,right,right,2,1,1,0.155,9,146,283,0.28300000000000003,1.733,0
5c91c01129b394001a4e473b,23,male,1,2,49,Clear_profit_side,3,0,0,0,right,right,right,2,1,1,0.11,9,146,283,0.28300000000000003,1.733,0
5c91c01129b394001a4e473b,23,male,1,2,51,Clear_profit_side,3,0,0,0,right,right,right,2,1,1,0.12300000000000001,9,146,283,0.28300000000000003,1.733,0
5c91c01129b394001a4e473b,23,male,1,2,56,Ambigous_right,3,0,0,0,right,right,right,2,1,1,0.312,9,146,283,0.28300000000000003,1.733,0
5c91c01129b394001a4e473b,23,male,1,2,58,Ambigous_right,3,0,0,0,right,right,right,2,1,1,0.133,9,146,283,0.28300000000000003,1.733,0
5c91c01129b394001a4e473b,23,male,1,2,59,Clear_profit_side,3,0,0,0,right,right,right,2,1,1,0.11699999999999999,9,146,283,0.28300000000000003,1.733,0
5c91c01129b394001a4e473b,23,male,1,2,63,Clear_profit_side,3,0,0,0,right,right,right,2,1,1,0.121,9,146,283,0.28300000000000003,1.733,0
5c91c01129b394001a4e473b,23,male,1,2,68,Clear_profit_side,3,0,0,0,right,right,right,2,1,1,0.113,9,146,283,0.28300000000000003,1.733,0
5c91c01129b394001a4e473b,23,male,1,2,73,Ambigous_right,3,0,0,0,right,right,right,2,1,1,0.129,9,146,283,0.28300000000000003,1.733,0
5c91c01129b394001a4e473b,23,male,1,2,76,Clear_profit_side,3,0,0,0,right,right,right,2,1,1,0.183,9,146,283,0.28300000000000003,1.733,0
5c91c01129b394001a4e473b,23,male,1,2,77,Clear_profit_side,3,0,0,0,right,right,right,2,1,1,0.111,9,146,283,0.28300000000000003,1.733,0
5c91c01129b394001a4e473b,23,male,1,2,82,Clear_profit_side,3,0,0,0,right,right,right,2,1,1,0.096,9,146,283,0.28300000000000003,1.733,0
5c91c01129b394001a4e473b,23,male,1,2,85,Clear_profit_side,3,0,0,0,right,right,right,2,1,1,0.091,9,146,283,0.28300000000000003,1.733,0
5c91c01129b394001a4e473b,23,male,1,2,89,Ambigous_right,3,0,0,0,right,right,right,2,1,1,0.21100000000000002,9,146,283,0.28300000000000003,1.733,0
5c91c01129b394001a4e473b,23,male,1,2,93,Clear_profit_side,3,0,0,0,right,right,right,2,1,1,0.105,9,146,283,0.28300000000000003,1.733,0
5c91c01129b394001a4e473b,23,male,1,2,94,Ambigous_right,3,0,0,0,right,right,right,2,1,1,0.11900000000000001,9,146,283,0.28300000000000003,1.733,0
5c91c01129b394001a4e473b,23,male,1,2,95,Ambigous_right,3,0,0,0,right,right,right,2,1,1,0.113,9,146,283,0.28300000000000003,1.733,0
5c91c01129b394001a4e473b,23,male,1,2,97,Ambigous_right,3,0,0,0,right,right,right,2,1,1,0.10400000000000001,9,146,283,0.28300000000000003,1.733,0
5c91c01129b394001a4e473b,23,male,1,2,100,Ambigous_right,3,0,0,0,right,right,right,2,1,1,0.1,9,146,283,0.28300000000000003,1.733,0
5da6a24a5b8ad1001570f6ae,61,female,1,1,1,Ambigous_left,1,90,1,20,left,left,left,20,-19,1,0.369,10,889,1760,1.76,3.21,0
5da6a24a5b8ad1001570f6ae,61,female,1,1,4,Clear_profit_side,1,90,1,20,left,left,left,20,-19,1,0.29100000000000004,10,889,1760,1.76,3.21,0
5da6a24a5b8ad1001570f6ae,61,female,1,1,6,Clear_profit_side,1,90,1,20,left,left,left,20,-19,1,0.315,10,889,1760,1.76,3.21,0
5da6a24a5b8ad1001570f6ae,61,female,1,1,8,Clear_profit_side,1,90,1,20,left,left,left,20,-19,1,0.223,10,889,1760,1.76,3.21,0
5da6a24a5b8ad1001570f6ae,61,female,1,1,10,Ambigous_left,1,90,1,20,left,left,left,20,-19,1,0.38799999999999996,10,889,1760,1.76,3.21,0
5da6a24a5b8ad1001570f6ae,61,female,1,1,13,Ambigous_left,1,90,1,20,left,left,left,20,-19,1,0.363,10,889,1760,1.76,3.21,0
5da6a24a5b8ad1001570f6ae,61,female,1,1,14,Ambigous_left,1,90,1,20,left,left,left,20,-19,1,0.19899999999999998,10,889,1760,1.76,3.21,0
5da6a24a5b8ad1001570f6ae,61,female,1,1,15,Ambigous_left,1,90,0,0,left,left,left,20,1,1,0.22399999999999998,10,889,1760,1.76,3.21,0
5da6a24a5b8ad1001570f6ae,61,female,1,1,20,Clear_profit_side,1,90,1,20,left,left,left,20,-19,1,0.243,10,889,1760,1.76,3.21,0
5da6a24a5b8ad1001570f6ae,61,female,1,1,24,Ambigous_left,1,90,1,20,left,left,left,20,-19,1,0.213,10,889,1760,1.76,3.21,0
5da6a24a5b8ad1001570f6ae,61,female,1,1,25,Ambigous_left,1,90,0,0,left,left,left,20,1,1,0.198,10,889,1760,1.76,3.21,0
5da6a24a5b8ad1001570f6ae,61,female,1,1,28,Clear_profit_side,1,90,1,20,left,left,left,20,-19,1,0.319,10,889,1760,1.76,3.21,0
5da6a24a5b8ad1001570f6ae,61,female,1,1,31,Ambigous_left,1,90,1,20,left,left,left,20,-19,1,0.24,10,889,1760,1.76,3.21,0
5da6a24a5b8ad1001570f6ae,61,female,1,1,32,Clear_profit_side,1,90,1,20,left,left,left,20,-19,1,0.191,10,889,1760,1.76,3.21,0
5da6a24a5b8ad1001570f6ae,61,female,1,1,33,Clear_profit_side,1,90,1,20,left,left,left,20,-19,1,0.16899999999999998,10,889,1760,1.76,3.21,0
5da6a24a5b8ad1001570f6ae,61,female,1,1,35,Ambigous_left,1,90,1,20,left,left,left,20,-19,1,0.354,10,889,1760,1.76,3.21,0
5da6a24a5b8ad1001570f6ae,61,female,1,1,39,Clear_profit_side,1,90,1,20,left,left,left,20,-19,1,0.24600000000000002,10,889,1760,1.76,3.21,0
5da6a24a5b8ad1001570f6ae,61,female,1,1,40,Ambigous_left,1,90,1,20,left,left,left,20,-19,1,0.222,10,889,1760,1.76,3.21,0
5da6a24a5b8ad1001570f6ae,61,female,1,1,42,Ambigous_left,1,90,1,20,left,left,left,20,-19,1,0.306,10,889,1760,1.76,3.21,0
5da6a24a5b8ad1001570f6ae,61,female,1,1,48,Ambigous_left,1,90,1,20,left,left,left,20,-19,1,0.24600000000000002,10,889,1760,1.76,3.21,0
5da6a24a5b8ad1001570f6ae,61,female,1,1,50,Clear_profit_side,1,90,1,20,left,left,left,20,-19,1,0.33299999999999996,10,889,1760,1.76,3.21,0
5da6a24a5b8ad1001570f6ae,61,female,1,1,51,Ambigous_left,1,90,1,20,left,left,left,20,-19,1,0.239,10,889,1760,1.76,3.21,0
5da6a24a5b8ad1001570f6ae,61,female,1,1,53,Ambigous_left,1,90,1,20,left,left,left,20,-19,1,0.336,10,889,1760,1.76,3.21,0
5da6a24a5b8ad1001570f6ae,61,female,1,1,56,Clear_profit_side,1,90,1,20,left,left,left,20,-19,1,0.26899999999999996,10,889,1760,1.76,3.21,0
5da6a24a5b8ad1001570f6ae,61,female,1,1,57,Clear_profit_side,1,90,1,20,left,left,left,20,-19,1,0.20600000000000002,10,889,1760,1.76,3.21,0
5da6a24a5b8ad1001570f6ae,61,female,1,1,59,Clear_profit_side,1,90,1,20,left,left,left,20,-19,1,0.335,10,889,1760,1.76,3.21,0
5da6a24a5b8ad1001570f6ae,61,female,1,1,60,Ambigous_left,1,90,1,20,left,left,left,20,-19,1,0.20199999999999999,10,889,1760,1.76,3.21,0
5da6a24a5b8ad1001570f6ae,61,female,1,1,61,Ambigous_left,1,90,1,20,left,left,left,20,-19,1,0.29600000000000004,10,889,1760,1.76,3.21,0
5da6a24a5b8ad1001570f6ae,61,female,1,1,62,Ambigous_left,1,90,1,20,left,left,left,20,-19,1,0.242,10,889,1760,1.76,3.21,0
5da6a24a5b8ad1001570f6ae,61,female,1,1,72,Ambigous_left,1,90,1,20,left,left,left,20,-19,1,0.19399999999999998,10,889,1760,1.76,3.21,0
5da6a24a5b8ad1001570f6ae,61,female,1,1,76,Clear_profit_side,1,90,0,0,left,left,left,20,1,1,0.256,10,889,1760,1.76,3.21,0
5da6a24a5b8ad1001570f6ae,61,female,1,1,78,Ambigous_left,1,90,1,20,left,left,left,20,-19,1,0.376,10,889,1760,1.76,3.21,0
5da6a24a5b8ad1001570f6ae,61,female,1,1,79,Ambigous_left,1,90,1,20,left,left,left,20,-19,1,0.193,10,889,1760,1.76,3.21,0
5da6a24a5b8ad1001570f6ae,61,female,1,1,82,Clear_profit_side,1,90,1,20,left,left,left,20,-19,1,0.23600000000000002,10,889,1760,1.76,3.21,0
5da6a24a5b8ad1001570f6ae,61,female,1,1,83,Clear_profit_side,1,90,1,20,left,left,left,20,-19,1,0.2,10,889,1760,1.76,3.21,0
5da6a24a5b8ad1001570f6ae,61,female,1,1,84,Ambigous_left,1,90,1,20,left,left,left,20,-19,1,0.451,10,889,1760,1.76,3.21,0
5da6a24a5b8ad1001570f6ae,61,female,1,1,85,Ambigous_left,1,90,1,20,left,left,left,20,-19,1,0.23800000000000002,10,889,1760,1.76,3.21,0
5da6a24a5b8ad1001570f6ae,61,female,1,1,88,Ambigous_left,1,90,1,20,left,left,left,20,-19,1,0.36,10,889,1760,1.76,3.21,0
5da6a24a5b8ad1001570f6ae,61,female,1,1,91,Ambigous_left,1,90,1,20,left,left,left,20,-19,1,0.33899999999999997,10,889,1760,1.76,3.21,0
5da6a24a5b8ad1001570f6ae,61,female,1,1,95,Ambigous_left,1,90,1,20,left,left,left,20,-19,1,0.251,10,889,1760,1.76,3.21,0
5da6a24a5b8ad1001570f6ae,61,female,1,1,96,Clear_profit_side,1,90,1,20,left,left,left,20,-19,1,0.214,10,889,1760,1.76,3.21,0
5da6a24a5b8ad1001570f6ae,61,female,1,2,1,Ambigous_left,1,90,0,0,left,left,left,20,1,1,0.266,10,871,1760,1.76,3.21,0
5da6a24a5b8ad1001570f6ae,61,female,1,2,6,Ambigous_left,1,90,1,20,left,left,left,20,-19,1,0.36,10,871,1760,1.76,3.21,0
5da6a24a5b8ad1001570f6ae,61,female,1,2,9,Ambigous_left,1,90,1,20,left,left,left,20,-19,1,0.23800000000000002,10,871,1760,1.76,3.21,0
5da6a24a5b8ad1001570f6ae,61,female,1,2,11,Ambigous_left,1,90,1,20,left,left,left,20,-19,1,0.502,10,871,1760,1.76,3.21,0
5da6a24a5b8ad1001570f6ae,61,female,1,2,13,Ambigous_left,1,90,1,20,left,left,left,20,-19,1,0.23800000000000002,10,871,1760,1.76,3.21,0
5da6a24a5b8ad1001570f6ae,61,female,1,2,14,Ambigous_left,1,90,1,20,left,left,left,20,-19,1,0.35600000000000004,10,871,1760,1.76,3.21,0
5da6a24a5b8ad1001570f6ae,61,female,1,2,17,Ambigous_left,1,90,1,20,left,left,left,20,-19,1,0.373,10,871,1760,1.76,3.21,0
5da6a24a5b8ad1001570f6ae,61,female,1,2,19,Clear_profit_side,1,90,1,20,left,left,left,20,-19,1,0.364,10,871,1760,1.76,3.21,0
5da6a24a5b8ad1001570f6ae,61,female,1,2,23,Ambigous_left,1,90,0,0,left,left,left,20,1,1,0.285,10,871,1760,1.76,3.21,0
5da6a24a5b8ad1001570f6ae,61,female,1,2,30,Ambigous_left,1,90,1,20,left,left,left,20,-19,1,0.273,10,871,1760,1.76,3.21,0
5da6a24a5b8ad1001570f6ae,61,female,1,2,31,Ambigous_left,1,90,1,20,left,left,left,20,-19,1,0.406,10,871,1760,1.76,3.21,0
5da6a24a5b8ad1001570f6ae,61,female,1,2,36,Ambigous_left,1,90,1,20,left,left,left,20,-19,1,0.382,10,871,1760,1.76,3.21,0
5da6a24a5b8ad1001570f6ae,61,female,1,2,39,Clear_profit_side,1,90,1,20,left,left,left,20,-19,1,0.318,10,871,1760,1.76,3.21,0
5da6a24a5b8ad1001570f6ae,61,female,1,2,43,Ambigous_left,1,90,1,20,left,left,left,20,-19,1,0.20800000000000002,10,871,1760,1.76,3.21,0
5da6a24a5b8ad1001570f6ae,61,female,1,2,49,Clear_profit_side,1,90,1,20,left,left,left,20,-19,1,0.267,10,871,1760,1.76,3.21,0
5da6a24a5b8ad1001570f6ae,61,female,1,2,51,Clear_profit_side,1,90,1,20,left,left,left,20,-19,1,0.294,10,871,1760,1.76,3.21,0
5da6a24a5b8ad1001570f6ae,61,female,1,2,52,Clear_profit_side,1,90,1,20,left,left,left,20,-19,1,0.215,10,871,1760,1.76,3.21,0
5da6a24a5b8ad1001570f6ae,61,female,1,2,53,Ambigous_left,1,90,1,20,left,left,left,20,-19,1,0.242,10,871,1760,1.76,3.21,0
5da6a24a5b8ad1001570f6ae,61,female,1,2,55,Ambigous_left,1,90,1,20,left,left,left,20,-19,1,0.35200000000000004,10,871,1760,1.76,3.21,0
5da6a24a5b8ad1001570f6ae,61,female,1,2,56,Ambigous_left,1,90,1,20,left,left,right,-19,0,0,0.507,10,871,1760,1.76,3.21,1
5da6a24a5b8ad1001570f6ae,61,female,1,2,58,Ambigous_left,1,90,1,20,left,left,left,20,-19,1,0.324,10,871,1760,1.76,3.21,0
5da6a24a5b8ad1001570f6ae,61,female,1,2,60,Ambigous_left,1,90,0,0,left,left,left,20,1,1,0.321,10,871,1760,1.76,3.21,0
5da6a24a5b8ad1001570f6ae,61,female,1,2,61,Ambigous_left,1,90,0,0,left,left,left,20,1,1,0.19,10,871,1760,1.76,3.21,0
5da6a24a5b8ad1001570f6ae,61,female,1,2,65,Clear_profit_side,1,90,1,20,left,left,left,20,-19,1,0.17300000000000001,10,871,1760,1.76,3.21,0
5da6a24a5b8ad1001570f6ae,61,female,1,2,66,Ambigous_left,1,90,1,20,left,left,left,20,-19,1,0.302,10,871,1760,1.76,3.21,0
5da6a24a5b8ad1001570f6ae,61,female,1,2,68,Clear_profit_side,1,90,1,20,left,left,left,20,-19,1,0.5329999999999999,10,871,1760,1.76,3.21,0
5da6a24a5b8ad1001570f6ae,61,female,1,2,70,Clear_profit_side,1,90,1,20,left,left,left,20,-19,1,0.391,10,871,1760,1.76,3.21,0
5da6a24a5b8ad1001570f6ae,61,female,1,2,73,Clear_profit_side,1,90,1,20,left,left,left,20,-19,1,0.221,10,871,1760,1.76,3.21,0
5da6a24a5b8ad1001570f6ae,61,female,1,2,74,Ambigous_left,1,90,1,20,left,left,left,20,-19,1,0.20600000000000002,10,871,1760,1.76,3.21,0
5da6a24a5b8ad1001570f6ae,61,female,1,2,78,Clear_profit_side,1,90,1,20,left,left,left,20,-19,1,0.233,10,871,1760,1.76,3.21,0
5da6a24a5b8ad1001570f6ae,61,female,1,2,81,Ambigous_left,1,90,1,20,left,left,left,20,-19,1,0.18600000000000003,10,871,1760,1.76,3.21,0
5da6a24a5b8ad1001570f6ae,61,female,1,2,84,Clear_profit_side,1,90,1,20,left,left,left,20,-19,1,0.222,10,871,1760,1.76,3.21,0
5da6a24a5b8ad1001570f6ae,61,female,1,2,88,Clear_profit_side,1,90,1,20,left,left,left,20,-19,1,0.226,10,871,1760,1.76,3.21,0
5da6a24a5b8ad1001570f6ae,61,female,1,2,89,Clear_profit_side,1,90,1,20,left,left,left,20,-19,1,0.179,10,871,1760,1.76,3.21,0
5da6a24a5b8ad1001570f6ae,61,female,1,2,90,Clear_profit_side,1,90,1,20,left,left,left,20,-19,1,0.19,10,871,1760,1.76,3.21,0
5da6a24a5b8ad1001570f6ae,61,female,1,2,92,Ambigous_left,1,90,1,20,left,left,left,20,-19,1,0.249,10,871,1760,1.76,3.21,0
5da6a24a5b8ad1001570f6ae,61,female,1,2,93,Clear_profit_side,1,90,1,20,left,left,left,20,-19,1,0.203,10,871,1760,1.76,3.21,0
5da6a24a5b8ad1001570f6ae,61,female,1,2,94,Ambigous_left,1,90,1,20,left,left,left,20,-19,1,0.348,10,871,1760,1.76,3.21,0
5da6a24a5b8ad1001570f6ae,61,female,1,2,95,Ambigous_left,1,90,1,20,left,left,left,20,-19,1,0.22899999999999998,10,871,1760,1.76,3.21,0
5da6a24a5b8ad1001570f6ae,61,female,1,2,97,Ambigous_left,1,90,1,20,left,left,left,20,-19,1,0.297,10,871,1760,1.76,3.21,0
5da6a24a5b8ad1001570f6ae,61,female,1,2,99,Clear_profit_side,1,90,1,20,left,left,left,20,-19,1,0.345,10,871,1760,1.76,3.21,0
5ddaf4f37aa0d6a6c2c53af6,27,female,1,1,2,Ambigous_left,2,10,0,0,left,left,left,20,1,1,0.054000000000000006,25,738,1409,1.409,2.859,0
5ddaf4f37aa0d6a6c2c53af6,27,female,1,1,3,Clear_profit_side,2,10,0,0,left,left,left,20,1,1,0.08,25,738,1409,1.409,2.859,0
5ddaf4f37aa0d6a6c2c53af6,27,female,1,1,5,Ambigous_left,2,10,0,0,left,left,right,1,20,0,0.07400000000000001,25,738,1409,1.409,2.859,1
5ddaf4f37aa0d6a6c2c53af6,27,female,1,1,10,Clear_profit_side,2,10,0,0,left,left,left,20,1,1,0.063,25,738,1409,1.409,2.859,0
5ddaf4f37aa0d6a6c2c53af6,27,female,1,1,13,Clear_profit_side,2,10,0,0,left,left,left,20,1,1,0.073,25,738,1409,1.409,2.859,0
5ddaf4f37aa0d6a6c2c53af6,27,female,1,1,14,Ambigous_left,2,10,0,0,left,left,left,20,1,1,0.06,25,738,1409,1.409,2.859,0
5ddaf4f37aa0d6a6c2c53af6,27,female,1,1,15,Ambigous_left,2,10,0,0,left,left,left,20,1,1,0.053,25,738,1409,1.409,2.859,0
5ddaf4f37aa0d6a6c2c53af6,27,female,1,1,16,Ambigous_left,2,10,0,0,left,left,left,20,1,1,0.059000000000000004,25,738,1409,1.409,2.859,0
5ddaf4f37aa0d6a6c2c53af6,27,female,1,1,19,Clear_profit_side,2,10,0,0,left,left,left,20,1,1,0.084,25,738,1409,1.409,2.859,0
5ddaf4f37aa0d6a6c2c53af6,27,female,1,1,26,Ambigous_left,2,10,0,0,left,left,left,20,1,1,0.061,25,738,1409,1.409,2.859,0
5ddaf4f37aa0d6a6c2c53af6,27,female,1,1,30,Ambigous_left,2,10,0,0,left,left,left,20,1,1,0.065,25,738,1409,1.409,2.859,0
5ddaf4f37aa0d6a6c2c53af6,27,female,1,1,31,Ambigous_left,2,10,1,180,left,left,left,20,-179,1,0.059000000000000004,25,738,1409,1.409,2.859,0
5ddaf4f37aa0d6a6c2c53af6,27,female,1,1,32,Ambigous_left,2,10,0,0,left,left,right,1,20,0,0.079,25,738,1409,1.409,2.859,1
5ddaf4f37aa0d6a6c2c53af6,27,female,1,1,33,Clear_profit_side,2,10,0,0,left,left,left,20,1,1,0.055,25,738,1409,1.409,2.859,0
5ddaf4f37aa0d6a6c2c53af6,27,female,1,1,37,Ambigous_left,2,10,0,0,left,left,left,20,1,1,0.064,25,738,1409,1.409,2.859,0
5ddaf4f37aa0d6a6c2c53af6,27,female,1,1,39,Clear_profit_side,2,10,0,0,left,left,left,20,1,1,0.059000000000000004,25,738,1409,1.409,2.859,0
5ddaf4f37aa0d6a6c2c53af6,27,female,1,1,47,Ambigous_left,2,10,0,0,left,left,left,20,1,1,0.068,25,738,1409,1.409,2.859,0
5ddaf4f37aa0d6a6c2c53af6,27,female,1,1,49,Clear_profit_side,2,10,0,0,left,left,left,20,1,1,0.047,25,738,1409,1.409,2.859,0
5ddaf4f37aa0d6a6c2c53af6,27,female,1,1,50,Ambigous_left,2,10,0,0,left,left,left,20,1,1,0.057,25,738,1409,1.409,2.859,0
5ddaf4f37aa0d6a6c2c53af6,27,female,1,1,53,Clear_profit_side,2,10,0,0,left,left,left,20,1,1,0.07,25,738,1409,1.409,2.859,0
5ddaf4f37aa0d6a6c2c53af6,27,female,1,1,55,Clear_profit_side,2,10,0,0,left,left,left,20,1,1,0.022000000000000002,25,738,1409,1.409,2.859,0
5ddaf4f37aa0d6a6c2c53af6,27,female,1,1,56,Ambigous_left,2,10,1,180,left,left,left,20,-179,1,0.026000000000000002,25,738,1409,1.409,2.859,0
5ddaf4f37aa0d6a6c2c53af6,27,female,1,1,59,Ambigous_left,2,10,0,0,left,left,left,20,1,1,0.042,25,738,1409,1.409,2.859,0
5ddaf4f37aa0d6a6c2c53af6,27,female,1,1,60,Clear_profit_side,2,10,0,0,left,left,left,20,1,1,0.044000000000000004,25,738,1409,1.409,2.859,0
5ddaf4f37aa0d6a6c2c53af6,27,female,1,1,61,Ambigous_left,2,10,0,0,left,left,left,20,1,1,0.054000000000000006,25,738,1409,1.409,2.859,0
5ddaf4f37aa0d6a6c2c53af6,27,female,1,1,62,Clear_profit_side,2,10,0,0,left,left,left,20,1,1,0.9670000000000001,25,738,1409,1.409,2.859,0
5ddaf4f37aa0d6a6c2c53af6,27,female,1,1,65,Ambigous_left,2,10,1,180,left,left,left,20,-179,1,0.065,25,738,1409,1.409,2.859,0
5ddaf4f37aa0d6a6c2c53af6,27,female,1,1,66,Ambigous_left,2,10,0,0,left,left,left,20,1,1,0.128,25,738,1409,1.409,2.859,0
5ddaf4f37aa0d6a6c2c53af6,27,female,1,1,69,Ambigous_left,2,10,0,0,left,left,left,20,1,1,0.125,25,738,1409,1.409,2.859,0
5ddaf4f37aa0d6a6c2c53af6,27,female,1,1,72,Ambigous_left,2,10,1,180,left,left,left,20,-179,1,0.065,25,738,1409,1.409,2.859,0
5ddaf4f37aa0d6a6c2c53af6,27,female,1,1,76,Ambigous_left,2,10,0,0,left,left,left,20,1,1,0.09,25,738,1409,1.409,2.859,0
5ddaf4f37aa0d6a6c2c53af6,27,female,1,1,77,Ambigous_left,2,10,0,0,left,left,left,20,1,1,0.057,25,738,1409,1.409,2.859,0
5ddaf4f37aa0d6a6c2c53af6,27,female,1,1,79,Clear_profit_side,2,10,0,0,left,left,left,20,1,1,0.057,25,738,1409,1.409,2.859,0
5ddaf4f37aa0d6a6c2c53af6,27,female,1,1,80,Ambigous_left,2,10,1,180,left,left,left,20,-179,1,0.071,25,738,1409,1.409,2.859,0
5ddaf4f37aa0d6a6c2c53af6,27,female,1,1,90,Ambigous_left,2,10,0,0,left,left,left,20,1,1,0.064,25,738,1409,1.409,2.859,0
5ddaf4f37aa0d6a6c2c53af6,27,female,1,1,91,Clear_profit_side,2,10,0,0,left,left,left,20,1,1,0.064,25,738,1409,1.409,2.859,0
5ddaf4f37aa0d6a6c2c53af6,27,female,1,1,92,Clear_profit_side,2,10,0,0,left,left,left,20,1,1,0.139,25,738,1409,1.409,2.859,0
5ddaf4f37aa0d6a6c2c53af6,27,female,1,1,93,Ambigous_left,2,10,0,0,left,left,left,20,1,1,0.081,25,738,1409,1.409,2.859,0
5ddaf4f37aa0d6a6c2c53af6,27,female,1,1,95,Ambigous_left,2,10,0,0,left,left,left,20,1,1,0.067,25,738,1409,1.409,2.859,0
5ddaf4f37aa0d6a6c2c53af6,27,female,1,1,96,Clear_profit_side,2,10,0,0,left,left,left,20,1,1,0.042,25,738,1409,1.409,2.859,0
5ddaf4f37aa0d6a6c2c53af6,27,female,1,1,98,Clear_profit_side,2,10,0,0,left,left,left,20,1,1,0.053,25,738,1409,1.409,2.859,0
5ddaf4f37aa0d6a6c2c53af6,27,female,1,2,1,Clear_profit_side,2,10,0,0,left,left,left,20,1,1,0.051,14,671,1409,1.409,2.859,0
5ddaf4f37aa0d6a6c2c53af6,27,female,1,2,3,Clear_profit_side,2,10,0,0,left,left,left,20,1,1,0.043,14,671,1409,1.409,2.859,0
5ddaf4f37aa0d6a6c2c53af6,27,female,1,2,6,Clear_profit_side,2,10,0,0,left,left,left,20,1,1,0.05,14,671,1409,1.409,2.859,0
5ddaf4f37aa0d6a6c2c53af6,27,female,1,2,10,Ambigous_left,2,10,0,0,left,left,left,20,1,1,0.062,14,671,1409,1.409,2.859,0
5ddaf4f37aa0d6a6c2c53af6,27,female,1,2,12,Ambigous_left,2,10,0,0,left,left,left,20,1,1,0.043,14,671,1409,1.409,2.859,0
5ddaf4f37aa0d6a6c2c53af6,27,female,1,2,15,Ambigous_left,2,10,0,0,left,left,right,1,20,0,0.065,14,671,1409,1.409,2.859,1
5ddaf4f37aa0d6a6c2c53af6,27,female,1,2,22,Ambigous_left,2,10,0,0,left,left,left,20,1,1,0.059000000000000004,14,671,1409,1.409,2.859,0
5ddaf4f37aa0d6a6c2c53af6,27,female,1,2,23,Ambigous_left,2,10,0,0,left,left,left,20,1,1,0.045,14,671,1409,1.409,2.859,0
5ddaf4f37aa0d6a6c2c53af6,27,female,1,2,24,Clear_profit_side,2,10,0,0,left,left,left,20,1,1,0.051,14,671,1409,1.409,2.859,0
5ddaf4f37aa0d6a6c2c53af6,27,female,1,2,25,Clear_profit_side,2,10,0,0,left,left,left,20,1,1,0.047,14,671,1409,1.409,2.859,0
5ddaf4f37aa0d6a6c2c53af6,27,female,1,2,26,Clear_profit_side,2,10,0,0,left,left,left,20,1,1,0.132,14,671,1409,1.409,2.859,0
5ddaf4f37aa0d6a6c2c53af6,27,female,1,2,29,Ambigous_left,2,10,0,0,left,left,left,20,1,1,0.07,14,671,1409,1.409,2.859,0
5ddaf4f37aa0d6a6c2c53af6,27,female,1,2,35,Clear_profit_side,2,10,0,0,left,left,left,20,1,1,0.11900000000000001,14,671,1409,1.409,2.859,0
5ddaf4f37aa0d6a6c2c53af6,27,female,1,2,36,Ambigous_left,2,10,0,0,left,left,left,20,1,1,0.048,14,671,1409,1.409,2.859,0
5ddaf4f37aa0d6a6c2c53af6,27,female,1,2,37,Ambigous_left,2,10,0,0,left,left,left,20,1,1,0.055999999999999994,14,671,1409,1.409,2.859,0
5ddaf4f37aa0d6a6c2c53af6,27,female,1,2,39,Ambigous_left,2,10,0,0,left,left,left,20,1,1,0.048,14,671,1409,1.409,2.859,0
5ddaf4f37aa0d6a6c2c53af6,27,female,1,2,43,Clear_profit_side,2,10,0,0,left,left,left,20,1,1,0.05,14,671,1409,1.409,2.859,0
5ddaf4f37aa0d6a6c2c53af6,27,female,1,2,46,Ambigous_left,2,10,0,0,left,left,left,20,1,1,0.052000000000000005,14,671,1409,1.409,2.859,0
5ddaf4f37aa0d6a6c2c53af6,27,female,1,2,48,Ambigous_left,2,10,0,0,left,left,left,20,1,1,0.061,14,671,1409,1.409,2.859,0
5ddaf4f37aa0d6a6c2c53af6,27,female,1,2,50,Ambigous_left,2,10,0,0,left,left,left,20,1,1,0.059000000000000004,14,671,1409,1.409,2.859,0
5ddaf4f37aa0d6a6c2c53af6,27,female,1,2,52,Ambigous_left,2,10,1,180,left,left,right,-179,-160,0,0.046,14,671,1409,1.409,2.859,1
5ddaf4f37aa0d6a6c2c53af6,27,female,1,2,56,Ambigous_left,2,10,0,0,left,left,left,20,1,1,0.054000000000000006,14,671,1409,1.409,2.859,0
5ddaf4f37aa0d6a6c2c53af6,27,female,1,2,57,Ambigous_left,2,10,0,0,left,left,left,20,1,1,0.046,14,671,1409,1.409,2.859,0
5ddaf4f37aa0d6a6c2c53af6,27,female,1,2,63,Ambigous_left,2,10,0,0,left,left,left,20,1,1,0.057,14,671,1409,1.409,2.859,0
5ddaf4f37aa0d6a6c2c53af6,27,female,1,2,64,Ambigous_left,2,10,0,0,left,left,left,20,1,1,0.078,14,671,1409,1.409,2.859,0
5ddaf4f37aa0d6a6c2c53af6,27,female,1,2,65,Ambigous_left,2,10,0,0,left,left,left,20,1,1,0.069,14,671,1409,1.409,2.859,0
5ddaf4f37aa0d6a6c2c53af6,27,female,1,2,66,Clear_profit_side,2,10,0,0,left,left,left,20,1,1,0.08199999999999999,14,671,1409,1.409,2.859,0
5ddaf4f37aa0d6a6c2c53af6,27,female,1,2,67,Ambigous_left,2,10,0,0,left,left,left,20,1,1,0.32299999999999995,14,671,1409,1.409,2.859,0
5ddaf4f37aa0d6a6c2c53af6,27,female,1,2,69,Ambigous_left,2,10,0,0,left,left,left,20,1,1,0.044000000000000004,14,671,1409,1.409,2.859,0
5ddaf4f37aa0d6a6c2c53af6,27,female,1,2,70,Clear_profit_side,2,10,0,0,left,left,left,20,1,1,0.037000000000000005,14,671,1409,1.409,2.859,0
5ddaf4f37aa0d6a6c2c53af6,27,female,1,2,71,Ambigous_left,2,10,1,180,left,left,left,20,-179,1,0.045,14,671,1409,1.409,2.859,0
5ddaf4f37aa0d6a6c2c53af6,27,female,1,2,73,Ambigous_left,2,10,1,180,left,left,left,20,-179,1,0.052000000000000005,14,671,1409,1.409,2.859,0
5ddaf4f37aa0d6a6c2c53af6,27,female,1,2,74,Clear_profit_side,2,10,0,0,left,left,left,20,1,1,0.076,14,671,1409,1.409,2.859,0
5ddaf4f37aa0d6a6c2c53af6,27,female,1,2,76,Clear_profit_side,2,10,0,0,left,left,left,20,1,1,0.05,14,671,1409,1.409,2.859,0
5ddaf4f37aa0d6a6c2c53af6,27,female,1,2,77,Clear_profit_side,2,10,0,0,left,left,right,1,20,0,0.065,14,671,1409,1.409,2.859,1
5ddaf4f37aa0d6a6c2c53af6,27,female,1,2,79,Clear_profit_side,2,10,0,0,left,left,left,20,1,1,0.057,14,671,1409,1.409,2.859,0
5ddaf4f37aa0d6a6c2c53af6,27,female,1,2,80,Ambigous_left,2,10,0,0,left,left,left,20,1,1,0.053,14,671,1409,1.409,2.859,0
5ddaf4f37aa0d6a6c2c53af6,27,female,1,2,87,Clear_profit_side,2,10,1,180,left,left,left,20,-179,1,0.047,14,671,1409,1.409,2.859,0
5ddaf4f37aa0d6a6c2c53af6,27,female,1,2,95,Clear_profit_side,2,10,0,0,left,left,left,20,1,1,0.053,14,671,1409,1.409,2.859,0
5ddaf4f37aa0d6a6c2c53af6,27,female,1,2,97,Ambigous_left,2,10,0,0,left,left,left,20,1,1,0.083,14,671,1409,1.409,2.859,0
5ddaf4f37aa0d6a6c2c53af6,27,female,1,2,100,Ambigous_left,2,10,0,0,left,left,left,20,1,1,0.052000000000000005,14,671,1409,1.409,2.859,0
5e3974014e49b0000aea3d11,21,female,1,1,4,Clear_profit_side,3,0,0,0,right,right,right,2,1,1,0.17,17,158,320,0.32,1.77,0
5e3974014e49b0000aea3d11,21,female,1,1,8,Ambigous_right,3,0,0,0,right,right,right,2,1,1,0.175,17,158,320,0.32,1.77,0
5e3974014e49b0000aea3d11,21,female,1,1,10,Ambigous_right,3,0,0,0,right,right,right,2,1,1,0.14400000000000002,17,158,320,0.32,1.77,0
5e3974014e49b0000aea3d11,21,female,1,1,13,Ambigous_right,3,0,0,0,right,right,right,2,1,1,0.152,17,158,320,0.32,1.77,0
5e3974014e49b0000aea3d11,21,female,1,1,14,Clear_profit_side,3,0,0,0,right,right,right,2,1,1,0.151,17,158,320,0.32,1.77,0
5e3974014e49b0000aea3d11,21,female,1,1,15,Ambigous_right,3,0,0,0,right,right,right,2,1,1,0.16399999999999998,17,158,320,0.32,1.77,0
5e3974014e49b0000aea3d11,21,female,1,1,17,Clear_profit_side,3,0,0,0,right,right,right,2,1,1,0.14800000000000002,17,158,320,0.32,1.77,0
5e3974014e49b0000aea3d11,21,female,1,1,19,Clear_profit_side,3,0,0,0,right,right,right,2,1,1,0.12,17,158,320,0.32,1.77,0
5e3974014e49b0000aea3d11,21,female,1,1,20,Ambigous_right,3,0,0,0,right,right,right,2,1,1,0.09699999999999999,17,158,320,0.32,1.77,0
5e3974014e49b0000aea3d11,21,female,1,1,27,Ambigous_right,3,0,0,0,right,right,right,2,1,1,0.126,17,158,320,0.32,1.77,0
5e3974014e49b0000aea3d11,21,female,1,1,28,Clear_profit_side,3,0,0,0,right,right,right,2,1,1,0.1,17,158,320,0.32,1.77,0
5e3974014e49b0000aea3d11,21,female,1,1,29,Clear_profit_side,3,0,0,0,right,right,right,2,1,1,0.08800000000000001,17,158,320,0.32,1.77,0
5e3974014e49b0000aea3d11,21,female,1,1,32,Clear_profit_side,3,0,0,0,right,right,right,2,1,1,0.106,17,158,320,0.32,1.77,0
5e3974014e49b0000aea3d11,21,female,1,1,33,Clear_profit_side,3,0,0,0,right,right,right,2,1,1,0.075,17,158,320,0.32,1.77,0
5e3974014e49b0000aea3d11,21,female,1,1,35,Ambigous_right,3,0,0,0,right,right,right,2,1,1,0.187,17,158,320,0.32,1.77,0
5e3974014e49b0000aea3d11,21,female,1,1,38,Clear_profit_side,3,0,0,0,right,right,right,2,1,1,0.10800000000000001,17,158,320,0.32,1.77,0
5e3974014e49b0000aea3d11,21,female,1,1,44,Ambigous_right,3,0,0,0,right,right,right,2,1,1,0.138,17,158,320,0.32,1.77,0
5e3974014e49b0000aea3d11,21,female,1,1,46,Ambigous_right,3,0,0,0,right,right,right,2,1,1,0.11800000000000001,17,158,320,0.32,1.77,0
5e3974014e49b0000aea3d11,21,female,1,1,50,Ambigous_right,3,0,0,0,right,right,right,2,1,1,0.128,17,158,320,0.32,1.77,0
5e3974014e49b0000aea3d11,21,female,1,1,52,Clear_profit_side,3,0,0,0,right,right,right,2,1,1,0.126,17,158,320,0.32,1.77,0
5e3974014e49b0000aea3d11,21,female,1,1,53,Ambigous_right,3,0,0,0,right,right,right,2,1,1,0.136,17,158,320,0.32,1.77,0
5e3974014e49b0000aea3d11,21,female,1,1,54,Ambigous_right,3,0,0,0,right,right,right,2,1,1,0.096,17,158,320,0.32,1.77,0
5e3974014e49b0000aea3d11,21,female,1,1,55,Clear_profit_side,3,0,0,0,right,right,right,2,1,1,0.099,17,158,320,0.32,1.77,0
5e3974014e49b0000aea3d11,21,female,1,1,56,Ambigous_right,3,0,0,0,right,right,right,2,1,1,0.08900000000000001,17,158,320,0.32,1.77,0
5e3974014e49b0000aea3d11,21,female,1,1,58,Ambigous_right,3,0,0,0,right,right,right,2,1,1,0.17600000000000002,17,158,320,0.32,1.77,0
5e3974014e49b0000aea3d11,21,female,1,1,61,Ambigous_right,3,0,0,0,right,right,right,2,1,1,0.086,17,158,320,0.32,1.77,0
5e3974014e49b0000aea3d11,21,female,1,1,62,Ambigous_right,3,0,0,0,right,right,right,2,1,1,0.07400000000000001,17,158,320,0.32,1.77,0
5e3974014e49b0000aea3d11,21,female,1,1,63,Clear_profit_side,3,0,0,0,right,right,right,2,1,1,0.046,17,158,320,0.32,1.77,0
5e3974014e49b0000aea3d11,21,female,1,1,64,Clear_profit_side,3,0,0,0,right,right,right,2,1,1,0.078,17,158,320,0.32,1.77,0
5e3974014e49b0000aea3d11,21,female,1,1,66,Ambigous_right,3,0,0,0,right,right,right,2,1,1,0.079,17,158,320,0.32,1.77,0
5e3974014e49b0000aea3d11,21,female,1,1,73,Ambigous_right,3,0,0,0,right,right,right,2,1,1,0.11,17,158,320,0.32,1.77,0
5e3974014e49b0000aea3d11,21,female,1,1,74,Clear_profit_side,3,0,0,0,right,right,right,2,1,1,0.08,17,158,320,0.32,1.77,0
5e3974014e49b0000aea3d11,21,female,1,1,75,Ambigous_right,3,0,0,0,right,right,right,2,1,1,0.081,17,158,320,0.32,1.77,0
5e3974014e49b0000aea3d11,21,female,1,1,83,Ambigous_right,3,0,0,0,right,right,right,2,1,1,0.12,17,158,320,0.32,1.77,0
5e3974014e49b0000aea3d11,21,female,1,1,87,Ambigous_right,3,0,0,0,right,right,right,2,1,1,0.14,17,158,320,0.32,1.77,0
