user_id,age,gender,attention,block_number,trial_number,trial_type,conditions,p_inspection,inspection,fine_size,profitable_side,true_side,choice,trial_payoff,alternative_payoff,choice_correct,rt_choice,block_errors,block_payoff,final_payoff,bonus,final_payment,error
56100d727ffc8a0005811338,43,female,1,1,3,Ambigous_left,3,0,0,0,left,left,left,2,1,1,0.285,6,141,277,0.277,1.7269999999999999,0
56100d727ffc8a0005811338,43,female,1,1,4,Ambigous_left,3,0,0,0,left,left,left,2,1,1,0.34700000000000003,6,141,277,0.277,1.7269999999999999,0
56100d727ffc8a0005811338,43,female,1,1,6,Ambigous_left,3,0,0,0,left,left,left,2,1,1,0.268,6,141,277,0.277,1.7269999999999999,0
56100d727ffc8a0005811338,43,female,1,1,15,Ambigous_left,3,0,0,0,left,left,left,2,1,1,0.28,6,141,277,0.277,1.7269999999999999,0
56100d727ffc8a0005811338,43,female,1,1,16,Ambigous_left,3,0,0,0,left,left,left,2,1,1,0.221,6,141,277,0.277,1.7269999999999999,0
56100d727ffc8a0005811338,43,female,1,1,30,Ambigous_left,3,0,0,0,left,left,left,2,1,1,0.22,6,141,277,0.277,1.7269999999999999,0
56100d727ffc8a0005811338,43,female,1,1,34,Ambigous_left,3,0,0,0,left,left,left,2,1,1,0.247,6,141,277,0.277,1.7269999999999999,0
56100d727ffc8a0005811338,43,female,1,1,43,Ambigous_left,3,0,0,0,left,left,right,1,2,0,0.7020000000000001,6,141,277,0.277,1.7269999999999999,1
56100d727ffc8a0005811338,43,female,1,1,48,Ambigous_left,3,0,0,0,left,left,left,2,1,1,0.246,6,141,277,0.277,1.7269999999999999,0
56100d727ffc8a0005811338,43,female,1,1,50,Ambigous_left,3,0,0,0,left,left,left,2,1,1,0.264,6,141,277,0.277,1.7269999999999999,0
56100d727ffc8a0005811338,43,female,1,1,53,Ambigous_left,3,0,0,0,left,left,left,2,1,1,0.16,6,141,277,0.277,1.7269999999999999,0
56100d727ffc8a0005811338,43,female,1,1,54,Ambigous_left,3,0,0,0,left,left,left,2,1,1,0.209,6,141,277,0.277,1.7269999999999999,0
56100d727ffc8a0005811338,43,female,1,1,57,Ambigous_left,3,0,0,0,left,left,left,2,1,1,0.228,6,141,277,0.277,1.7269999999999999,0
56100d727ffc8a0005811338,43,female,1,1,63,Ambigous_left,3,0,0,0,left,left,left,2,1,1,0.23,6,141,277,0.277,1.7269999999999999,0
56100d727ffc8a0005811338,43,female,1,1,67,Ambigous_left,3,0,0,0,left,left,right,1,2,0,0.64,6,141,277,0.277,1.7269999999999999,1
56100d727ffc8a0005811338,43,female,1,1,71,Ambigous_left,3,0,0,0,left,left,left,2,1,1,0.23,6,141,277,0.277,1.7269999999999999,0
56100d727ffc8a0005811338,43,female,1,1,73,Ambigous_left,3,0,0,0,left,left,left,2,1,1,0.268,6,141,277,0.277,1.7269999999999999,0
56100d727ffc8a0005811338,43,female,1,1,74,Ambigous_left,3,0,0,0,left,left,left,2,1,1,0.16399999999999998,6,141,277,0.277,1.7269999999999999,0
56100d727ffc8a0005811338,43,female,1,1,79,Ambigous_left,3,0,0,0,left,left,left,2,1,1,0.221,6,141,277,0.277,1.7269999999999999,0
56100d727ffc8a0005811338,43,female,1,1,80,Ambigous_left,3,0,0,0,left,left,right,1,2,0,0.209,6,141,277,0.277,1.7269999999999999,1
56100d727ffc8a0005811338,43,female,1,1,85,Ambigous_left,3,0,0,0,left,left,left,2,1,1,0.418,6,141,277,0.277,1.7269999999999999,0
56100d727ffc8a0005811338,43,female,1,1,88,Ambigous_left,3,0,0,0,left,left,left,2,1,1,0.25,6,141,277,0.277,1.7269999999999999,0
56100d727ffc8a0005811338,43,female,1,1,90,Ambigous_left,3,0,0,0,left,left,left,2,1,1,0.16,6,141,277,0.277,1.7269999999999999,0
56100d727ffc8a0005811338,43,female,1,1,92,Ambigous_left,3,0,0,0,left,left,left,2,1,1,0.223,6,141,277,0.277,1.7269999999999999,0
56100d727ffc8a0005811338,43,female,1,1,100,Ambigous_left,3,0,0,0,left,left,left,2,1,1,0.222,6,141,277,0.277,1.7269999999999999,0
56100d727ffc8a0005811338,43,female,1,2,1,Ambigous_left,3,0,0,0,left,left,left,2,1,1,0.252,7,136,277,0.277,1.7269999999999999,0
56100d727ffc8a0005811338,43,female,1,2,10,Ambigous_left,3,0,0,0,left,left,left,2,1,1,0.16,7,136,277,0.277,1.7269999999999999,0
56100d727ffc8a0005811338,43,female,1,2,12,Ambigous_left,3,0,0,0,left,left,left,2,1,1,0.238,7,136,277,0.277,1.7269999999999999,0
56100d727ffc8a0005811338,43,female,1,2,15,Ambigous_left,3,0,0,0,left,left,left,2,1,1,0.224,7,136,277,0.277,1.7269999999999999,0
56100d727ffc8a0005811338,43,female,1,2,20,Ambigous_left,3,0,0,0,left,left,left,2,1,1,0.289,7,136,277,0.277,1.7269999999999999,0
56100d727ffc8a0005811338,43,female,1,2,25,Ambigous_left,3,0,0,0,left,left,left,2,1,1,0.265,7,136,277,0.277,1.7269999999999999,0
56100d727ffc8a0005811338,43,female,1,2,27,Ambigous_left,3,0,0,0,left,left,left,2,1,1,0.219,7,136,277,0.277,1.7269999999999999,0
56100d727ffc8a0005811338,43,female,1,2,34,Ambigous_left,3,0,0,0,left,left,left,2,1,1,0.21,7,136,277,0.277,1.7269999999999999,0
56100d727ffc8a0005811338,43,female,1,2,47,Ambigous_left,3,0,0,0,left,left,left,2,1,1,0.196,7,136,277,0.277,1.7269999999999999,0
56100d727ffc8a0005811338,43,female,1,2,48,Ambigous_left,3,0,0,0,left,left,right,1,2,0,0.366,7,136,277,0.277,1.7269999999999999,1
56100d727ffc8a0005811338,43,female,1,2,49,Ambigous_left,3,0,0,0,left,left,left,2,1,1,0.191,7,136,277,0.277,1.7269999999999999,0
56100d727ffc8a0005811338,43,female,1,2,52,Ambigous_left,3,0,0,0,left,left,left,2,1,1,0.206,7,136,277,0.277,1.7269999999999999,0
56100d727ffc8a0005811338,43,female,1,2,53,Ambigous_left,3,0,0,0,left,left,left,2,1,1,0.182,7,136,277,0.277,1.7269999999999999,0
56100d727ffc8a0005811338,43,female,1,2,59,Ambigous_left,3,0,0,0,left,left,left,2,1,1,0.191,7,136,277,0.277,1.7269999999999999,0
56100d727ffc8a0005811338,43,female,1,2,68,Ambigous_left,3,0,0,0,left,left,right,1,2,0,0.199,7,136,277,0.277,1.7269999999999999,1
56100d727ffc8a0005811338,43,female,1,2,69,Ambigous_left,3,0,0,0,left,left,left,2,1,1,0.205,7,136,277,0.277,1.7269999999999999,0
56100d727ffc8a0005811338,43,female,1,2,71,Ambigous_left,3,0,0,0,left,left,left,2,1,1,0.205,7,136,277,0.277,1.7269999999999999,0
56100d727ffc8a0005811338,43,female,1,2,74,Ambigous_left,3,0,0,0,left,left,left,2,1,1,0.209,7,136,277,0.277,1.7269999999999999,0
56100d727ffc8a0005811338,43,female,1,2,77,Ambigous_left,3,0,0,0,left,left,right,1,2,0,0.14,7,136,277,0.277,1.7269999999999999,1
56100d727ffc8a0005811338,43,female,1,2,84,Ambigous_left,3,0,0,0,left,left,left,2,1,1,0.211,7,136,277,0.277,1.7269999999999999,0
56100d727ffc8a0005811338,43,female,1,2,85,Ambigous_left,3,0,0,0,left,left,left,2,1,1,0.219,7,136,277,0.277,1.7269999999999999,0
56100d727ffc8a0005811338,43,female,1,2,89,Ambigous_left,3,0,0,0,left,left,left,2,1,1,0.226,7,136,277,0.277,1.7269999999999999,0
56100d727ffc8a0005811338,43,female,1,2,92,Ambigous_left,3,0,0,0,left,left,right,1,2,0,0.379,7,136,277,0.277,1.7269999999999999,1
56100d727ffc8a0005811338,43,female,1,2,96,Ambigous_left,3,0,0,0,left,left,left,2,1,1,0.202,7,136,277,0.277,1.7269999999999999,0
56100d727ffc8a0005811338,43,female,1,2,99,Ambigous_left,3,0,0,0,left,left,right,1,2,0,0.221,7,136,277,0.277,1.7269999999999999,1
578f9f52eeaf6d00018d4f20,30,male,1,1,4,Ambigous_left,3,0,0,0,left,left,left,2,1,1,0.019,59,200,398,0.398,1.848,0
578f9f52eeaf6d00018d4f20,30,male,1,1,6,Ambigous_left,3,0,0,0,left,left,left,2,1,1,0.085,59,200,398,0.398,1.848,0
578f9f52eeaf6d00018d4f20,30,male,1,1,12,Ambigous_left,3,0,0,0,left,left,left,2,1,1,0.087,59,200,398,0.398,1.848,0
578f9f52eeaf6d00018d4f20,30,male,1,1,24,Ambigous_left,3,0,0,0,left,left,left,2,1,1,0.039,59,200,398,0.398,1.848,0
578f9f52eeaf6d00018d4f20,30,male,1,1,26,Ambigous_left,3,0,0,0,left,left,left,2,1,1,0.04,59,200,398,0.398,1.848,0
578f9f52eeaf6d00018d4f20,30,male,1,1,30,Ambigous_left,3,0,0,0,left,left,left,2,1,1,0.041,59,200,398,0.398,1.848,0
578f9f52eeaf6d00018d4f20,30,male,1,1,31,Ambigous_left,3,0,0,0,left,left,left,2,1,1,0.038,59,200,398,0.398,1.848,0
578f9f52eeaf6d00018d4f20,30,male,1,1,32,Ambigous_left,3,0,0,0,left,left,left,2,1,1,0.023,59,200,398,0.398,1.848,0
578f9f52eeaf6d00018d4f20,30,male,1,1,37,Ambigous_left,3,0,0,0,left,left,left,2,1,1,0.038,59,200,398,0.398,1.848,0
578f9f52eeaf6d00018d4f20,30,male,1,1,38,Ambigous_left,3,0,0,0,left,left,left,2,1,1,0.071,59,200,398,0.398,1.848,0
578f9f52eeaf6d00018d4f20,30,male,1,1,40,Ambigous_left,3,0,0,0,left,left,left,2,1,1,0.051,59,200,398,0.398,1.848,0
578f9f52eeaf6d00018d4f20,30,male,1,1,49,Ambigous_left,3,0,0,0,left,left,left,2,1,1,0.009000000000000001,59,200,398,0.398,1.848,0
578f9f52eeaf6d00018d4f20,30,male,1,1,53,Ambigous_left,3,0,0,0,left,left,left,2,1,1,0.004,59,200,398,0.398,1.848,0
578f9f52eeaf6d00018d4f20,30,male,1,1,55,Ambigous_left,3,0,0,0,left,left,left,2,1,1,0.004,59,200,398,0.398,1.848,0
578f9f52eeaf6d00018d4f20,30,male,1,1,57,Ambigous_left,3,0,0,0,left,left,left,2,1,1,0.109,59,200,398,0.398,1.848,0
578f9f52eeaf6d00018d4f20,30,male,1,1,60,Ambigous_left,3,0,0,0,left,left,left,2,1,1,0.043,59,200,398,0.398,1.848,0
578f9f52eeaf6d00018d4f20,30,male,1,1,63,Ambigous_left,3,0,0,0,left,left,left,2,1,1,0.028,59,200,398,0.398,1.848,0
578f9f52eeaf6d00018d4f20,30,male,1,1,71,Ambigous_left,3,0,0,0,left,left,left,2,1,1,0.039,59,200,398,0.398,1.848,0
578f9f52eeaf6d00018d4f20,30,male,1,1,75,Ambigous_left,3,0,0,0,left,left,left,2,1,1,0.099,59,200,398,0.398,1.848,0
578f9f52eeaf6d00018d4f20,30,male,1,1,81,Ambigous_left,3,0,0,0,left,left,left,2,1,1,0.059,59,200,398,0.398,1.848,0
578f9f52eeaf6d00018d4f20,30,male,1,1,82,Ambigous_left,3,0,0,0,left,left,left,2,1,1,0.038,59,200,398,0.398,1.848,0
578f9f52eeaf6d00018d4f20,30,male,1,1,84,Ambigous_left,3,0,0,0,left,left,left,2,1,1,0.048,59,200,398,0.398,1.848,0
578f9f52eeaf6d00018d4f20,30,male,1,1,86,Ambigous_left,3,0,0,0,left,left,left,2,1,1,0.055,59,200,398,0.398,1.848,0
578f9f52eeaf6d00018d4f20,30,male,1,1,88,Ambigous_left,3,0,0,0,left,left,left,2,1,1,0.07400000000000001,59,200,398,0.398,1.848,0
578f9f52eeaf6d00018d4f20,30,male,1,1,97,Ambigous_left,3,0,0,0,left,left,left,2,1,1,0.055,59,200,398,0.398,1.848,0
578f9f52eeaf6d00018d4f20,30,male,1,2,10,Ambigous_left,3,0,0,0,left,left,left,2,1,1,0.039,59,198,398,0.398,1.848,0
578f9f52eeaf6d00018d4f20,30,male,1,2,14,Ambigous_left,3,0,0,0,left,left,left,2,1,1,0.047,59,198,398,0.398,1.848,0
578f9f52eeaf6d00018d4f20,30,male,1,2,25,Ambigous_left,3,0,0,0,left,left,left,2,1,1,0.026,59,198,398,0.398,1.848,0
578f9f52eeaf6d00018d4f20,30,male,1,2,26,Ambigous_left,3,0,0,0,left,left,left,2,1,1,0.041,59,198,398,0.398,1.848,0
578f9f52eeaf6d00018d4f20,30,male,1,2,27,Ambigous_left,3,0,0,0,left,left,left,2,1,1,0.053,59,198,398,0.398,1.848,0
578f9f52eeaf6d00018d4f20,30,male,1,2,32,Ambigous_left,3,0,0,0,left,left,left,2,1,1,0.032,59,198,398,0.398,1.848,0
578f9f52eeaf6d00018d4f20,30,male,1,2,39,Ambigous_left,3,0,0,0,left,left,left,2,1,1,0.05,59,198,398,0.398,1.848,0
578f9f52eeaf6d00018d4f20,30,male,1,2,41,Ambigous_left,3,0,0,0,left,left,left,2,1,1,0.04,59,198,398,0.398,1.848,0
578f9f52eeaf6d00018d4f20,30,male,1,2,42,Ambigous_left,3,0,0,0,left,left,left,2,1,1,0.017,59,198,398,0.398,1.848,0
578f9f52eeaf6d00018d4f20,30,male,1,2,46,Ambigous_left,3,0,0,0,left,left,left,2,1,1,0.014,59,198,398,0.398,1.848,0
578f9f52eeaf6d00018d4f20,30,male,1,2,47,Ambigous_left,3,0,0,0,left,left,left,2,1,1,0.013,59,198,398,0.398,1.848,0
578f9f52eeaf6d00018d4f20,30,male,1,2,53,Ambigous_left,3,0,0,0,left,left,left,2,1,1,0.1,59,198,398,0.398,1.848,0
578f9f52eeaf6d00018d4f20,30,male,1,2,58,Ambigous_left,3,0,0,0,left,left,left,2,1,1,0.018000000000000002,59,198,398,0.398,1.848,0
578f9f52eeaf6d00018d4f20,30,male,1,2,59,Ambigous_left,3,0,0,0,left,left,left,2,1,1,0.017,59,198,398,0.398,1.848,0
578f9f52eeaf6d00018d4f20,30,male,1,2,69,Ambigous_left,3,0,0,0,left,left,left,2,1,1,0.067,59,198,398,0.398,1.848,0
578f9f52eeaf6d00018d4f20,30,male,1,2,70,Ambigous_left,3,0,0,0,left,left,left,2,1,1,0.081,59,198,398,0.398,1.848,0
578f9f52eeaf6d00018d4f20,30,male,1,2,71,Ambigous_left,3,0,0,0,left,left,left,2,1,1,0.069,59,198,398,0.398,1.848,0
578f9f52eeaf6d00018d4f20,30,male,1,2,75,Ambigous_left,3,0,0,0,left,left,left,2,1,1,0.027000000000000003,59,198,398,0.398,1.848,0
578f9f52eeaf6d00018d4f20,30,male,1,2,84,Ambigous_left,3,0,0,0,left,left,left,2,1,1,0.079,59,198,398,0.398,1.848,0
578f9f52eeaf6d00018d4f20,30,male,1,2,87,Ambigous_left,3,0,0,0,left,left,left,2,1,1,0.07200000000000001,59,198,398,0.398,1.848,0
578f9f52eeaf6d00018d4f20,30,male,1,2,90,Ambigous_left,3,0,0,0,left,left,left,2,1,1,0.066,59,198,398,0.398,1.848,0
578f9f52eeaf6d00018d4f20,30,male,1,2,94,Ambigous_left,3,0,0,0,left,left,left,2,1,1,0.064,59,198,398,0.398,1.848,0
578f9f52eeaf6d00018d4f20,30,male,1,2,96,Ambigous_left,3,0,0,0,left,left,left,2,1,1,0.058,59,198,398,0.398,1.848,0
578f9f52eeaf6d00018d4f20,30,male,1,2,99,Ambigous_left,3,0,0,0,left,left,left,2,1,1,0.059,59,198,398,0.398,1.848,0
595bf7acc76e6700014d33fc,52,female,1,1,3,Ambigous_left,2,10,0,0,left,left,left,20,1,1,0.068,9,642,1170,1.17,2.62,0
595bf7acc76e6700014d33fc,52,female,1,1,5,Ambigous_left,2,10,0,0,left,left,right,1,20,0,0.068,9,642,1170,1.17,2.62,1
595bf7acc76e6700014d33fc,52,female,1,1,6,Ambigous_left,2,10,0,0,left,left,left,20,1,1,0.064,9,642,1170,1.17,2.62,0
595bf7acc76e6700014d33fc,52,female,1,1,15,Ambigous_left,2,10,0,0,left,left,right,1,20,0,0.078,9,642,1170,1.17,2.62,1
595bf7acc76e6700014d33fc,52,female,1,1,16,Ambigous_left,2,10,0,0,left,left,left,20,1,1,0.059,9,642,1170,1.17,2.62,0
595bf7acc76e6700014d33fc,52,female,1,1,19,Ambigous_left,2,10,0,0,left,left,left,20,1,1,0.048,9,642,1170,1.17,2.62,0
595bf7acc76e6700014d33fc,52,female,1,1,26,Ambigous_left,2,10,1,180,left,left,left,20,-179,1,0.06,9,642,1170,1.17,2.62,0
595bf7acc76e6700014d33fc,52,female,1,1,29,Ambigous_left,2,10,0,0,left,left,left,20,1,1,0.093,9,642,1170,1.17,2.62,0
595bf7acc76e6700014d33fc,52,female,1,1,36,Ambigous_left,2,10,0,0,left,left,left,20,1,1,0.073,9,642,1170,1.17,2.62,0
595bf7acc76e6700014d33fc,52,female,1,1,41,Ambigous_left,2,10,0,0,left,left,left,20,1,1,0.067,9,642,1170,1.17,2.62,0
595bf7acc76e6700014d33fc,52,female,1,1,42,Ambigous_left,2,10,0,0,left,left,left,20,1,1,0.039,9,642,1170,1.17,2.62,0
595bf7acc76e6700014d33fc,52,female,1,1,49,Ambigous_left,2,10,0,0,left,left,right,1,20,0,0.057,9,642,1170,1.17,2.62,1
595bf7acc76e6700014d33fc,52,female,1,1,50,Ambigous_left,2,10,0,0,left,left,left,20,1,1,0.041,9,642,1170,1.17,2.62,0
595bf7acc76e6700014d33fc,52,female,1,1,53,Ambigous_left,2,10,0,0,left,left,left,20,1,1,0.057,9,642,1170,1.17,2.62,0
595bf7acc76e6700014d33fc,52,female,1,1,58,Ambigous_left,2,10,1,180,left,left,left,20,-179,1,0.046,9,642,1170,1.17,2.62,0
595bf7acc76e6700014d33fc,52,female,1,1,62,Ambigous_left,2,10,0,0,left,left,left,20,1,1,0.059,9,642,1170,1.17,2.62,0
595bf7acc76e6700014d33fc,52,female,1,1,63,Ambigous_left,2,10,0,0,left,left,left,20,1,1,0.052000000000000005,9,642,1170,1.17,2.62,0
595bf7acc76e6700014d33fc,52,female,1,1,64,Ambigous_left,2,10,0,0,left,left,right,1,20,0,0.064,9,642,1170,1.17,2.62,1
595bf7acc76e6700014d33fc,52,female,1,1,70,Ambigous_left,2,10,0,0,left,left,left,20,1,1,0.064,9,642,1170,1.17,2.62,0
595bf7acc76e6700014d33fc,52,female,1,1,71,Ambigous_left,2,10,0,0,left,left,left,20,1,1,0.036000000000000004,9,642,1170,1.17,2.62,0
595bf7acc76e6700014d33fc,52,female,1,1,72,Ambigous_left,2,10,0,0,left,left,left,20,1,1,0.081,9,642,1170,1.17,2.62,0
595bf7acc76e6700014d33fc,52,female,1,1,74,Ambigous_left,2,10,0,0,left,left,right,1,20,0,0.046,9,642,1170,1.17,2.62,1
595bf7acc76e6700014d33fc,52,female,1,1,94,Ambigous_left,2,10,0,0,left,left,right,1,20,0,0.049,9,642,1170,1.17,2.62,1
595bf7acc76e6700014d33fc,52,female,1,1,96,Ambigous_left,2,10,0,0,left,left,left,20,1,1,0.042,9,642,1170,1.17,2.62,0
595bf7acc76e6700014d33fc,52,female,1,1,98,Ambigous_left,2,10,0,0,left,left,left,20,1,1,0.079,9,642,1170,1.17,2.62,0
595bf7acc76e6700014d33fc,52,female,1,2,6,Ambigous_left,2,10,0,0,left,left,left,20,1,1,0.038,13,528,1170,1.17,2.62,0
595bf7acc76e6700014d33fc,52,female,1,2,9,Ambigous_left,2,10,0,0,left,left,right,1,20,0,0.046,13,528,1170,1.17,2.62,1
595bf7acc76e6700014d33fc,52,female,1,2,10,Ambigous_left,2,10,0,0,left,left,left,20,1,1,0.038,13,528,1170,1.17,2.62,0
595bf7acc76e6700014d33fc,52,female,1,2,15,Ambigous_left,2,10,0,0,left,left,left,20,1,1,0.035,13,528,1170,1.17,2.62,0
595bf7acc76e6700014d33fc,52,female,1,2,19,Ambigous_left,2,10,0,0,left,left,right,1,20,0,0.055,13,528,1170,1.17,2.62,1
595bf7acc76e6700014d33fc,52,female,1,2,22,Ambigous_left,2,10,0,0,left,left,right,1,20,0,0.026,13,528,1170,1.17,2.62,1
595bf7acc76e6700014d33fc,52,female,1,2,23,Ambigous_left,2,10,0,0,left,left,right,1,20,0,0.041,13,528,1170,1.17,2.62,1
595bf7acc76e6700014d33fc,52,female,1,2,30,Ambigous_left,2,10,0,0,left,left,left,20,1,1,0.036000000000000004,13,528,1170,1.17,2.62,0
595bf7acc76e6700014d33fc,52,female,1,2,44,Ambigous_left,2,10,0,0,left,left,left,20,1,1,0.046,13,528,1170,1.17,2.62,0
595bf7acc76e6700014d33fc,52,female,1,2,45,Ambigous_left,2,10,0,0,left,left,left,20,1,1,0.021,13,528,1170,1.17,2.62,0
595bf7acc76e6700014d33fc,52,female,1,2,48,Ambigous_left,2,10,0,0,left,left,right,1,20,0,0.037000000000000005,13,528,1170,1.17,2.62,1
595bf7acc76e6700014d33fc,52,female,1,2,49,Ambigous_left,2,10,1,180,left,left,left,20,-179,1,0.098,13,528,1170,1.17,2.62,0
595bf7acc76e6700014d33fc,52,female,1,2,55,Ambigous_left,2,10,0,0,left,left,left,20,1,1,0.029,13,528,1170,1.17,2.62,0
595bf7acc76e6700014d33fc,52,female,1,2,56,Ambigous_left,2,10,0,0,left,left,right,1,20,0,0.043,13,528,1170,1.17,2.62,1
595bf7acc76e6700014d33fc,52,female,1,2,57,Ambigous_left,2,10,0,0,left,left,right,1,20,0,0.032,13,528,1170,1.17,2.62,1
595bf7acc76e6700014d33fc,52,female,1,2,64,Ambigous_left,2,10,0,0,left,left,left,20,1,1,0.038,13,528,1170,1.17,2.62,0
595bf7acc76e6700014d33fc,52,female,1,2,69,Ambigous_left,2,10,0,0,left,left,right,1,20,0,0.043,13,528,1170,1.17,2.62,1
595bf7acc76e6700014d33fc,52,female,1,2,70,Ambigous_left,2,10,0,0,left,left,right,1,20,0,0.051,13,528,1170,1.17,2.62,1
595bf7acc76e6700014d33fc,52,female,1,2,71,Ambigous_left,2,10,0,0,left,left,left,20,1,1,0.039,13,528,1170,1.17,2.62,0
595bf7acc76e6700014d33fc,52,female,1,2,75,Ambigous_left,2,10,0,0,left,left,left,20,1,1,0.028,13,528,1170,1.17,2.62,0
595bf7acc76e6700014d33fc,52,female,1,2,82,Ambigous_left,2,10,0,0,left,left,left,20,1,1,0.047,13,528,1170,1.17,2.62,0
595bf7acc76e6700014d33fc,52,female,1,2,85,Ambigous_left,2,10,0,0,left,left,left,20,1,1,0.046,13,528,1170,1.17,2.62,0
595bf7acc76e6700014d33fc,52,female,1,2,87,Ambigous_left,2,10,0,0,left,left,left,20,1,1,0.043,13,528,1170,1.17,2.62,0
595bf7acc76e6700014d33fc,52,female,1,2,89,Ambigous_left,2,10,0,0,left,left,right,1,20,0,0.037000000000000005,13,528,1170,1.17,2.62,1
595bf7acc76e6700014d33fc,52,female,1,2,98,Ambigous_left,2,10,0,0,left,left,right,1,20,0,0.031,13,528,1170,1.17,2.62,1
59e7276d5de9b000017ed1c1,38,male,0,1,7,Ambigous_right,3,0,0,0,right,right,right,2,1,1,0.401,13,152,325,0.325,1.775,0
59e7276d5de9b000017ed1c1,38,male,0,1,16,Ambigous_right,3,0,0,0,right,right,right,2,1,1,0.438,13,152,325,0.325,1.775,0
59e7276d5de9b000017ed1c1,38,male,0,1,24,Ambigous_right,3,0,0,0,right,right,right,2,1,1,0.293,13,152,325,0.325,1.775,0
59e7276d5de9b000017ed1c1,38,male,0,1,27,Ambigous_right,3,0,0,0,right,right,right,2,1,1,0.452,13,152,325,0.325,1.775,0
59e7276d5de9b000017ed1c1,38,male,0,1,29,Ambigous_right,3,0,0,0,right,right,right,2,1,1,0.24,13,152,325,0.325,1.775,0
59e7276d5de9b000017ed1c1,38,male,0,1,33,Ambigous_right,3,0,0,0,right,right,right,2,1,1,0.203,13,152,325,0.325,1.775,0
59e7276d5de9b000017ed1c1,38,male,0,1,38,Ambigous_right,3,0,0,0,right,right,right,2,1,1,0.211,13,152,325,0.325,1.775,0
59e7276d5de9b000017ed1c1,38,male,0,1,39,Ambigous_right,3,0,0,0,right,right,right,2,1,1,0.275,13,152,325,0.325,1.775,0
59e7276d5de9b000017ed1c1,38,male,0,1,40,Ambigous_right,3,0,0,0,right,right,right,2,1,1,0.202,13,152,325,0.325,1.775,0
59e7276d5de9b000017ed1c1,38,male,0,1,41,Ambigous_right,3,0,0,0,right,right,right,2,1,1,0.225,13,152,325,0.325,1.775,0
59e7276d5de9b000017ed1c1,38,male,0,1,44,Ambigous_right,3,0,0,0,right,right,right,2,1,1,0.27,13,152,325,0.325,1.775,0
59e7276d5de9b000017ed1c1,38,male,0,1,47,Ambigous_right,3,0,0,0,right,right,right,2,1,1,0.228,13,152,325,0.325,1.775,0
59e7276d5de9b000017ed1c1,38,male,0,1,54,Ambigous_right,3,0,0,0,right,right,right,2,1,1,0.217,13,152,325,0.325,1.775,0
59e7276d5de9b000017ed1c1,38,male,0,1,55,Ambigous_right,3,0,0,0,right,right,right,2,1,1,0.221,13,152,325,0.325,1.775,0
59e7276d5de9b000017ed1c1,38,male,0,1,58,Ambigous_right,3,0,0,0,right,right,right,2,1,1,0.307,13,152,325,0.325,1.775,0
59e7276d5de9b000017ed1c1,38,male,0,1,62,Ambigous_right,3,0,0,0,right,right,left,1,2,0,0.482,13,152,325,0.325,1.775,1
59e7276d5de9b000017ed1c1,38,male,0,1,66,Ambigous_right,3,0,0,0,right,right,right,2,1,1,0.264,13,152,325,0.325,1.775,0
59e7276d5de9b000017ed1c1,38,male,0,1,73,Ambigous_right,3,0,0,0,right,right,right,2,1,1,0.213,13,152,325,0.325,1.775,0
59e7276d5de9b000017ed1c1,38,male,0,1,75,Ambigous_right,3,0,0,0,right,right,right,2,1,1,0.192,13,152,325,0.325,1.775,0
59e7276d5de9b000017ed1c1,38,male,0,1,77,Ambigous_right,3,0,0,0,right,right,right,2,1,1,0.295,13,152,325,0.325,1.775,0
59e7276d5de9b000017ed1c1,38,male,0,1,89,Ambigous_right,3,0,0,0,right,right,right,2,1,1,0.179,13,152,325,0.325,1.775,0
59e7276d5de9b000017ed1c1,38,male,0,1,93,Ambigous_right,3,0,0,0,right,right,right,2,1,1,0.177,13,152,325,0.325,1.775,0
59e7276d5de9b000017ed1c1,38,male,0,1,94,Ambigous_right,3,0,0,0,right,right,right,2,1,1,0.179,13,152,325,0.325,1.775,0
59e7276d5de9b000017ed1c1,38,male,0,1,95,Ambigous_right,3,0,0,0,right,right,right,2,1,1,0.161,13,152,325,0.325,1.775,0
59e7276d5de9b000017ed1c1,38,male,0,1,99,Ambigous_right,3,0,0,0,right,right,right,2,1,1,0.349,13,152,325,0.325,1.775,0
59e7276d5de9b000017ed1c1,38,male,0,2,2,Ambigous_right,3,0,0,0,right,right,right,2,1,1,0.294,34,173,325,0.325,1.775,0
59e7276d5de9b000017ed1c1,38,male,0,2,5,Ambigous_right,3,0,0,0,right,right,right,2,1,1,0.17600000000000002,34,173,325,0.325,1.775,0
59e7276d5de9b000017ed1c1,38,male,0,2,20,Ambigous_right,3,0,0,0,right,right,right,2,1,1,0.162,34,173,325,0.325,1.775,0
59e7276d5de9b000017ed1c1,38,male,0,2,24,Ambigous_right,3,0,0,0,right,right,right,2,1,1,0.215,34,173,325,0.325,1.775,0
59e7276d5de9b000017ed1c1,38,male,0,2,34,Ambigous_right,3,0,0,0,right,right,right,2,1,1,0.224,34,173,325,0.325,1.775,0
59e7276d5de9b000017ed1c1,38,male,0,2,36,Ambigous_right,3,0,0,0,right,right,right,2,1,1,0.177,34,173,325,0.325,1.775,0
59e7276d5de9b000017ed1c1,38,male,0,2,43,Ambigous_right,3,0,0,0,right,right,right,2,1,1,0.183,34,173,325,0.325,1.775,0
59e7276d5de9b000017ed1c1,38,male,0,2,45,Ambigous_right,3,0,0,0,right,right,right,2,1,1,0.32,34,173,325,0.325,1.775,0
59e7276d5de9b000017ed1c1,38,male,0,2,47,Ambigous_right,3,0,0,0,right,right,right,2,1,1,0.199,34,173,325,0.325,1.775,0
59e7276d5de9b000017ed1c1,38,male,0,2,48,Ambigous_right,3,0,0,0,right,right,right,2,1,1,0.205,34,173,325,0.325,1.775,0
59e7276d5de9b000017ed1c1,38,male,0,2,49,Ambigous_right,3,0,0,0,right,right,right,2,1,1,0.14400000000000002,34,173,325,0.325,1.775,0
59e7276d5de9b000017ed1c1,38,male,0,2,50,Ambigous_right,3,0,0,0,right,right,right,2,1,1,0.145,34,173,325,0.325,1.775,0
59e7276d5de9b000017ed1c1,38,male,0,2,51,Ambigous_right,3,0,0,0,right,right,right,2,1,1,0.205,34,173,325,0.325,1.775,0
59e7276d5de9b000017ed1c1,38,male,0,2,52,Ambigous_right,3,0,0,0,right,right,left,1,2,0,0.394,34,173,325,0.325,1.775,1
59e7276d5de9b000017ed1c1,38,male,0,2,55,Ambigous_right,3,0,0,0,right,right,right,2,1,1,0.241,34,173,325,0.325,1.775,0
59e7276d5de9b000017ed1c1,38,male,0,2,63,Ambigous_right,3,0,0,0,right,right,right,2,1,1,0.3670000000000001,34,173,325,0.325,1.775,0
59e7276d5de9b000017ed1c1,38,male,0,2,66,Ambigous_right,3,0,0,0,right,right,right,2,1,1,0.232,34,173,325,0.325,1.775,0
59e7276d5de9b000017ed1c1,38,male,0,2,68,Ambigous_right,3,0,0,0,right,right,right,2,1,1,0.168,34,173,325,0.325,1.775,0
59e7276d5de9b000017ed1c1,38,male,0,2,76,Ambigous_right,3,0,0,0,right,right,right,2,1,1,0.287,34,173,325,0.325,1.775,0
59e7276d5de9b000017ed1c1,38,male,0,2,80,Ambigous_right,3,0,0,0,right,right,right,2,1,1,0.371,34,173,325,0.325,1.775,0
59e7276d5de9b000017ed1c1,38,male,0,2,84,Ambigous_right,3,0,0,0,right,right,right,2,1,1,0.146,34,173,325,0.325,1.775,0
59e7276d5de9b000017ed1c1,38,male,0,2,89,Ambigous_right,3,0,0,0,right,right,right,2,1,1,0.325,34,173,325,0.325,1.775,0
59e7276d5de9b000017ed1c1,38,male,0,2,90,Ambigous_right,3,0,0,0,right,right,right,2,1,1,0.153,34,173,325,0.325,1.775,0
59e7276d5de9b000017ed1c1,38,male,0,2,95,Ambigous_right,3,0,0,0,right,right,right,2,1,1,0.157,34,173,325,0.325,1.775,0
59e7276d5de9b000017ed1c1,38,male,0,2,99,Ambigous_right,3,0,0,0,right,right,right,2,1,1,0.221,34,173,325,0.325,1.775,0
5b01842bc573030001c345e0,44,male,1,1,7,Ambigous_right,1,90,1,20,right,right,right,20,-19,1,0.149,19,784,1597,1.597,3.0469999999999997,0
5b01842bc573030001c345e0,44,male,1,1,8,Ambigous_right,1,90,1,20,right,right,right,20,-19,1,0.173,19,784,1597,1.597,3.0469999999999997,0
5b01842bc573030001c345e0,44,male,1,1,9,Ambigous_right,1,90,1,20,right,right,right,20,-19,1,0.126,19,784,1597,1.597,3.0469999999999997,0
5b01842bc573030001c345e0,44,male,1,1,12,Ambigous_right,1,90,1,20,right,right,right,20,-19,1,0.12,19,784,1597,1.597,3.0469999999999997,0
5b01842bc573030001c345e0,44,male,1,1,14,Ambigous_right,1,90,1,20,right,right,right,20,-19,1,0.107,19,784,1597,1.597,3.0469999999999997,0
5b01842bc573030001c345e0,44,male,1,1,19,Ambigous_right,1,90,1,20,right,right,right,20,-19,1,0.107,19,784,1597,1.597,3.0469999999999997,0
5b01842bc573030001c345e0,44,male,1,1,21,Ambigous_right,1,90,1,20,right,right,right,20,-19,1,0.11,19,784,1597,1.597,3.0469999999999997,0
5b01842bc573030001c345e0,44,male,1,1,23,Ambigous_right,1,90,1,20,right,right,right,20,-19,1,0.08,19,784,1597,1.597,3.0469999999999997,0
5b01842bc573030001c345e0,44,male,1,1,27,Ambigous_right,1,90,1,20,right,right,right,20,-19,1,0.172,19,784,1597,1.597,3.0469999999999997,0
5b01842bc573030001c345e0,44,male,1,1,28,Ambigous_right,1,90,0,0,right,right,right,20,1,1,0.135,19,784,1597,1.597,3.0469999999999997,0
5b01842bc573030001c345e0,44,male,1,1,37,Ambigous_right,1,90,1,20,right,right,right,20,-19,1,0.14,19,784,1597,1.597,3.0469999999999997,0
5b01842bc573030001c345e0,44,male,1,1,50,Ambigous_right,1,90,1,20,right,right,right,20,-19,1,0.261,19,784,1597,1.597,3.0469999999999997,0
5b01842bc573030001c345e0,44,male,1,1,51,Ambigous_right,1,90,1,20,right,right,right,20,-19,1,0.18,19,784,1597,1.597,3.0469999999999997,0
5b01842bc573030001c345e0,44,male,1,1,52,Ambigous_right,1,90,1,20,right,right,right,20,-19,1,0.11,19,784,1597,1.597,3.0469999999999997,0
5b01842bc573030001c345e0,44,male,1,1,56,Ambigous_right,1,90,1,20,right,right,right,20,-19,1,0.147,19,784,1597,1.597,3.0469999999999997,0
5b01842bc573030001c345e0,44,male,1,1,61,Ambigous_right,1,90,1,20,right,right,left,-19,0,0,0.289,19,784,1597,1.597,3.0469999999999997,1
5b01842bc573030001c345e0,44,male,1,1,71,Ambigous_right,1,90,1,20,right,right,right,20,-19,1,0.179,19,784,1597,1.597,3.0469999999999997,0
5b01842bc573030001c345e0,44,male,1,1,77,Ambigous_right,1,90,1,20,right,right,right,20,-19,1,0.135,19,784,1597,1.597,3.0469999999999997,0
5b01842bc573030001c345e0,44,male,1,1,79,Ambigous_right,1,90,1,20,right,right,right,20,-19,1,0.217,19,784,1597,1.597,3.0469999999999997,0
5b01842bc573030001c345e0,44,male,1,1,80,Ambigous_right,1,90,1,20,right,right,left,-19,0,0,0.247,19,784,1597,1.597,3.0469999999999997,1
5b01842bc573030001c345e0,44,male,1,1,88,Ambigous_right,1,90,0,0,right,right,right,20,1,1,0.13,19,784,1597,1.597,3.0469999999999997,0
5b01842bc573030001c345e0,44,male,1,1,96,Ambigous_right,1,90,1,20,right,right,right,20,-19,1,0.128,19,784,1597,1.597,3.0469999999999997,0
5b01842bc573030001c345e0,44,male,1,1,98,Ambigous_right,1,90,1,20,right,right,right,20,-19,1,0.133,19,784,1597,1.597,3.0469999999999997,0
5b01842bc573030001c345e0,44,male,1,1,99,Ambigous_right,1,90,1,20,right,right,right,20,-19,1,0.13,19,784,1597,1.597,3.0469999999999997,0
5b01842bc573030001c345e0,44,male,1,1,100,Ambigous_right,1,90,1,20,right,right,right,20,-19,1,0.129,19,784,1597,1.597,3.0469999999999997,0
5b01842bc573030001c345e0,44,male,1,2,2,Ambigous_right,1,90,1,20,right,right,right,20,-19,1,0.126,10,813,1597,1.597,3.0469999999999997,0
5b01842bc573030001c345e0,44,male,1,2,10,Ambigous_right,1,90,1,20,right,right,right,20,-19,1,0.141,10,813,1597,1.597,3.0469999999999997,0
5b01842bc573030001c345e0,44,male,1,2,14,Ambigous_right,1,90,1,20,right,right,right,20,-19,1,0.129,10,813,1597,1.597,3.0469999999999997,0
5b01842bc573030001c345e0,44,male,1,2,15,Ambigous_right,1,90,1,20,right,right,right,20,-19,1,0.122,10,813,1597,1.597,3.0469999999999997,0
5b01842bc573030001c345e0,44,male,1,2,19,Ambigous_right,1,90,1,20,right,right,right,20,-19,1,0.081,10,813,1597,1.597,3.0469999999999997,0
5b01842bc573030001c345e0,44,male,1,2,24,Ambigous_right,1,90,1,20,right,right,right,20,-19,1,0.123,10,813,1597,1.597,3.0469999999999997,0
5b01842bc573030001c345e0,44,male,1,2,26,Ambigous_right,1,90,0,0,right,right,right,20,1,1,0.098,10,813,1597,1.597,3.0469999999999997,0
5b01842bc573030001c345e0,44,male,1,2,29,Ambigous_right,1,90,1,20,right,right,right,20,-19,1,0.126,10,813,1597,1.597,3.0469999999999997,0
5b01842bc573030001c345e0,44,male,1,2,33,Ambigous_right,1,90,1,20,right,right,right,20,-19,1,0.155,10,813,1597,1.597,3.0469999999999997,0
5b01842bc573030001c345e0,44,male,1,2,35,Ambigous_right,1,90,1,20,right,right,right,20,-19,1,0.124,10,813,1597,1.597,3.0469999999999997,0
5b01842bc573030001c345e0,44,male,1,2,39,Ambigous_right,1,90,1,20,right,right,right,20,-19,1,0.134,10,813,1597,1.597,3.0469999999999997,0
5b01842bc573030001c345e0,44,male,1,2,40,Ambigous_right,1,90,1,20,right,right,right,20,-19,1,0.12,10,813,1597,1.597,3.0469999999999997,0
5b01842bc573030001c345e0,44,male,1,2,41,Ambigous_right,1,90,1,20,right,right,right,20,-19,1,0.123,10,813,1597,1.597,3.0469999999999997,0
5b01842bc573030001c345e0,44,male,1,2,43,Ambigous_right,1,90,1,20,right,right,right,20,-19,1,0.086,10,813,1597,1.597,3.0469999999999997,0
5b01842bc573030001c345e0,44,male,1,2,48,Ambigous_right,1,90,1,20,right,right,right,20,-19,1,0.105,10,813,1597,1.597,3.0469999999999997,0
5b01842bc573030001c345e0,44,male,1,2,50,Ambigous_right,1,90,0,0,right,right,right,20,1,1,0.204,10,813,1597,1.597,3.0469999999999997,0
5b01842bc573030001c345e0,44,male,1,2,55,Ambigous_right,1,90,1,20,right,right,right,20,-19,1,0.122,10,813,1597,1.597,3.0469999999999997,0
5b01842bc573030001c345e0,44,male,1,2,67,Ambigous_right,1,90,1,20,right,right,right,20,-19,1,0.124,10,813,1597,1.597,3.0469999999999997,0
5b01842bc573030001c345e0,44,male,1,2,69,Ambigous_right,1,90,1,20,right,right,left,-19,0,0,0.149,10,813,1597,1.597,3.0469999999999997,1
5b01842bc573030001c345e0,44,male,1,2,72,Ambigous_right,1,90,1,20,right,right,right,20,-19,1,0.124,10,813,1597,1.597,3.0469999999999997,0
5b01842bc573030001c345e0,44,male,1,2,75,Ambigous_right,1,90,1,20,right,right,right,20,-19,1,0.128,10,813,1597,1.597,3.0469999999999997,0
5b01842bc573030001c345e0,44,male,1,2,81,Ambigous_right,1,90,0,0,right,right,left,1,20,0,0.415,10,813,1597,1.597,3.0469999999999997,1
5b01842bc573030001c345e0,44,male,1,2,85,Ambigous_right,1,90,1,20,right,right,right,20,-19,1,0.12,10,813,1597,1.597,3.0469999999999997,0
5b01842bc573030001c345e0,44,male,1,2,96,Ambigous_right,1,90,1,20,right,right,right,20,-19,1,0.128,10,813,1597,1.597,3.0469999999999997,0
5b01842bc573030001c345e0,44,male,1,2,98,Ambigous_right,1,90,0,0,right,right,right,20,1,1,0.115,10,813,1597,1.597,3.0469999999999997,0
5c8d2f74e775150016db3700,20,female,0,1,4,Ambigous_left,1,90,1,20,left,left,left,20,-19,1,0.278,5,760,1553,1.5530000000000002,3.003,0
5c8d2f74e775150016db3700,20,female,0,1,5,Ambigous_left,1,90,0,0,left,left,left,20,1,1,0.387,5,760,1553,1.5530000000000002,3.003,0
5c8d2f74e775150016db3700,20,female,0,1,6,Ambigous_left,1,90,1,20,left,left,left,20,-19,1,0.229,5,760,1553,1.5530000000000002,3.003,0
5c8d2f74e775150016db3700,20,female,0,1,7,Ambigous_left,1,90,1,20,left,left,left,20,-19,1,0.293,5,760,1553,1.5530000000000002,3.003,0
5c8d2f74e775150016db3700,20,female,0,1,8,Ambigous_left,1,90,1,20,left,left,left,20,-19,1,0.46,5,760,1553,1.5530000000000002,3.003,0
5c8d2f74e775150016db3700,20,female,0,1,12,Ambigous_left,1,90,1,20,left,left,left,20,-19,1,0.223,5,760,1553,1.5530000000000002,3.003,0
5c8d2f74e775150016db3700,20,female,0,1,14,Ambigous_left,1,90,1,20,left,left,left,20,-19,1,0.423,5,760,1553,1.5530000000000002,3.003,0
5c8d2f74e775150016db3700,20,female,0,1,15,Ambigous_left,1,90,1,20,left,left,left,20,-19,1,0.336,5,760,1553,1.5530000000000002,3.003,0
5c8d2f74e775150016db3700,20,female,0,1,17,Ambigous_left,1,90,1,20,left,left,left,20,-19,1,0.233,5,760,1553,1.5530000000000002,3.003,0
5c8d2f74e775150016db3700,20,female,0,1,20,Ambigous_left,1,90,1,20,left,left,left,20,-19,1,0.222,5,760,1553,1.5530000000000002,3.003,0
5c8d2f74e775150016db3700,20,female,0,1,22,Ambigous_left,1,90,1,20,left,left,left,20,-19,1,0.391,5,760,1553,1.5530000000000002,3.003,0
5c8d2f74e775150016db3700,20,female,0,1,25,Ambigous_left,1,90,1,20,left,left,left,20,-19,1,0.222,5,760,1553,1.5530000000000002,3.003,0
5c8d2f74e775150016db3700,20,female,0,1,32,Ambigous_left,1,90,1,20,left,left,right,-19,0,0,0.139,5,760,1553,1.5530000000000002,3.003,1
5c8d2f74e775150016db3700,20,female,0,1,36,Ambigous_left,1,90,1,20,left,left,left,20,-19,1,0.201,5,760,1553,1.5530000000000002,3.003,0
5c8d2f74e775150016db3700,20,female,0,1,37,Ambigous_left,1,90,1,20,left,left,left,20,-19,1,0.299,5,760,1553,1.5530000000000002,3.003,0
5c8d2f74e775150016db3700,20,female,0,1,54,Ambigous_left,1,90,1,20,left,left,left,20,-19,1,0.131,5,760,1553,1.5530000000000002,3.003,0
5c8d2f74e775150016db3700,20,female,0,1,60,Ambigous_left,1,90,1,20,left,left,right,-19,0,0,0.166,5,760,1553,1.5530000000000002,3.003,1
5c8d2f74e775150016db3700,20,female,0,1,73,Ambigous_left,1,90,1,20,left,left,left,20,-19,1,0.152,5,760,1553,1.5530000000000002,3.003,0
5c8d2f74e775150016db3700,20,female,0,1,79,Ambigous_left,1,90,1,20,left,left,left,20,-19,1,0.3,5,760,1553,1.5530000000000002,3.003,0
5c8d2f74e775150016db3700,20,female,0,1,80,Ambigous_left,1,90,1,20,left,left,right,-19,0,0,0.174,5,760,1553,1.5530000000000002,3.003,1
5c8d2f74e775150016db3700,20,female,0,1,83,Ambigous_left,1,90,1,20,left,left,left,20,-19,1,0.152,5,760,1553,1.5530000000000002,3.003,0
5c8d2f74e775150016db3700,20,female,0,1,84,Ambigous_left,1,90,1,20,left,left,left,20,-19,1,0.279,5,760,1553,1.5530000000000002,3.003,0
5c8d2f74e775150016db3700,20,female,0,1,90,Ambigous_left,1,90,1,20,left,left,left,20,-19,1,0.16699999999999998,5,760,1553,1.5530000000000002,3.003,0
5c8d2f74e775150016db3700,20,female,0,1,95,Ambigous_left,1,90,1,20,left,left,left,20,-19,1,0.159,5,760,1553,1.5530000000000002,3.003,0
5c8d2f74e775150016db3700,20,female,0,1,97,Ambigous_left,1,90,1,20,left,left,left,20,-19,1,0.156,5,760,1553,1.5530000000000002,3.003,0
5c8d2f74e775150016db3700,20,female,0,2,18,Ambigous_left,1,90,1,20,left,left,left,20,-19,1,0.146,10,793,1553,1.5530000000000002,3.003,0
5c8d2f74e775150016db3700,20,female,0,2,19,Ambigous_left,1,90,1,20,left,left,left,20,-19,1,0.15,10,793,1553,1.5530000000000002,3.003,0
5c8d2f74e775150016db3700,20,female,0,2,23,Ambigous_left,1,90,0,0,left,left,left,20,1,1,0.26,10,793,1553,1.5530000000000002,3.003,0
5c8d2f74e775150016db3700,20,female,0,2,24,Ambigous_left,1,90,1,20,left,left,left,20,-19,1,0.184,10,793,1553,1.5530000000000002,3.003,0
5c8d2f74e775150016db3700,20,female,0,2,31,Ambigous_left,1,90,1,20,left,left,left,20,-19,1,0.141,10,793,1553,1.5530000000000002,3.003,0
5c8d2f74e775150016db3700,20,female,0,2,32,Ambigous_left,1,90,1,20,left,left,left,20,-19,1,0.16899999999999998,10,793,1553,1.5530000000000002,3.003,0
5c8d2f74e775150016db3700,20,female,0,2,33,Ambigous_left,1,90,1,20,left,left,right,-19,0,0,0.16,10,793,1553,1.5530000000000002,3.003,1
5c8d2f74e775150016db3700,20,female,0,2,42,Ambigous_left,1,90,0,0,left,left,left,20,1,1,0.135,10,793,1553,1.5530000000000002,3.003,0
5c8d2f74e775150016db3700,20,female,0,2,43,Ambigous_left,1,90,1,20,left,left,left,20,-19,1,0.13699999999999998,10,793,1553,1.5530000000000002,3.003,0
5c8d2f74e775150016db3700,20,female,0,2,45,Ambigous_left,1,90,1,20,left,left,left,20,-19,1,0.116,10,793,1553,1.5530000000000002,3.003,0
5c8d2f74e775150016db3700,20,female,0,2,46,Ambigous_left,1,90,1,20,left,left,left,20,-19,1,0.149,10,793,1553,1.5530000000000002,3.003,0
5c8d2f74e775150016db3700,20,female,0,2,52,Ambigous_left,1,90,1,20,left,left,left,20,-19,1,0.136,10,793,1553,1.5530000000000002,3.003,0
5c8d2f74e775150016db3700,20,female,0,2,56,Ambigous_left,1,90,1,20,left,left,left,20,-19,1,0.173,10,793,1553,1.5530000000000002,3.003,0
5c8d2f74e775150016db3700,20,female,0,2,58,Ambigous_left,1,90,1,20,left,left,left,20,-19,1,0.154,10,793,1553,1.5530000000000002,3.003,0
5c8d2f74e775150016db3700,20,female,0,2,60,Ambigous_left,1,90,1,20,left,left,left,20,-19,1,0.14,10,793,1553,1.5530000000000002,3.003,0
5c8d2f74e775150016db3700,20,female,0,2,65,Ambigous_left,1,90,1,20,left,left,left,20,-19,1,0.142,10,793,1553,1.5530000000000002,3.003,0
5c8d2f74e775150016db3700,20,female,0,2,67,Ambigous_left,1,90,1,20,left,left,left,20,-19,1,0.133,10,793,1553,1.5530000000000002,3.003,0
5c8d2f74e775150016db3700,20,female,0,2,79,Ambigous_left,1,90,1,20,left,left,left,20,-19,1,0.166,10,793,1553,1.5530000000000002,3.003,0
5c8d2f74e775150016db3700,20,female,0,2,81,Ambigous_left,1,90,1,20,left,left,left,20,-19,1,0.138,10,793,1553,1.5530000000000002,3.003,0
5c8d2f74e775150016db3700,20,female,0,2,85,Ambigous_left,1,90,1,20,left,left,left,20,-19,1,0.139,10,793,1553,1.5530000000000002,3.003,0
5c8d2f74e775150016db3700,20,female,0,2,92,Ambigous_left,1,90,1,20,left,left,left,20,-19,1,0.16,10,793,1553,1.5530000000000002,3.003,0
5c8d2f74e775150016db3700,20,female,0,2,97,Ambigous_left,1,90,1,20,left,left,left,20,-19,1,0.207,10,793,1553,1.5530000000000002,3.003,0
5c8d2f74e775150016db3700,20,female,0,2,98,Ambigous_left,1,90,1,20,left,left,left,20,-19,1,0.165,10,793,1553,1.5530000000000002,3.003,0
5c8d2f74e775150016db3700,20,female,0,2,99,Ambigous_left,1,90,1,20,left,left,right,-19,0,0,0.188,10,793,1553,1.5530000000000002,3.003,1
5c8d2f74e775150016db3700,20,female,0,2,100,Ambigous_left,1,90,0,0,left,left,left,20,1,1,0.189,10,793,1553,1.5530000000000002,3.003,0
5c91c01129b394001a4e473b,23,male,1,1,3,Ambigous_right,3,0,0,0,right,right,right,2,1,1,0.297,8,137,283,0.28300000000000003,1.733,0
5c91c01129b394001a4e473b,23,male,1,1,5,Ambigous_right,3,0,0,0,right,right,right,2,1,1,0.233,8,137,283,0.28300000000000003,1.733,0
5c91c01129b394001a4e473b,23,male,1,1,18,Ambigous_right,3,0,0,0,right,right,right,2,1,1,0.501,8,137,283,0.28300000000000003,1.733,0
5c91c01129b394001a4e473b,23,male,1,1,21,Ambigous_right,3,0,0,0,right,right,right,2,1,1,0.124,8,137,283,0.28300000000000003,1.733,0
5c91c01129b394001a4e473b,23,male,1,1,25,Ambigous_right,3,0,0,0,right,right,right,2,1,1,0.126,8,137,283,0.28300000000000003,1.733,0
5c91c01129b394001a4e473b,23,male,1,1,31,Ambigous_right,3,0,0,0,right,right,right,2,1,1,0.153,8,137,283,0.28300000000000003,1.733,0
5c91c01129b394001a4e473b,23,male,1,1,33,Ambigous_right,3,0,0,0,right,right,right,2,1,1,0.1,8,137,283,0.28300000000000003,1.733,0
5c91c01129b394001a4e473b,23,male,1,1,34,Ambigous_right,3,0,0,0,right,right,left,1,2,0,0.141,8,137,283,0.28300000000000003,1.733,1
5c91c01129b394001a4e473b,23,male,1,1,36,Ambigous_right,3,0,0,0,right,right,right,2,1,1,0.125,8,137,283,0.28300000000000003,1.733,0
5c91c01129b394001a4e473b,23,male,1,1,37,Ambigous_right,3,0,0,0,right,right,right,2,1,1,0.14300000000000002,8,137,283,0.28300000000000003,1.733,0
5c91c01129b394001a4e473b,23,male,1,1,38,Ambigous_right,3,0,0,0,right,right,right,2,1,1,0.14,8,137,283,0.28300000000000003,1.733,0
5c91c01129b394001a4e473b,23,male,1,1,42,Ambigous_right,3,0,0,0,right,right,right,2,1,1,0.132,8,137,283,0.28300000000000003,1.733,0
5c91c01129b394001a4e473b,23,male,1,1,47,Ambigous_right,3,0,0,0,right,right,left,1,2,0,0.16,8,137,283,0.28300000000000003,1.733,1
5c91c01129b394001a4e473b,23,male,1,1,50,Ambigous_right,3,0,0,0,right,right,right,2,1,1,0.209,8,137,283,0.28300000000000003,1.733,0
5c91c01129b394001a4e473b,23,male,1,1,52,Ambigous_right,3,0,0,0,right,right,right,2,1,1,0.12,8,137,283,0.28300000000000003,1.733,0
5c91c01129b394001a4e473b,23,male,1,1,54,Ambigous_right,3,0,0,0,right,right,right,2,1,1,0.172,8,137,283,0.28300000000000003,1.733,0
5c91c01129b394001a4e473b,23,male,1,1,58,Ambigous_right,3,0,0,0,right,right,right,2,1,1,0.28800000000000003,8,137,283,0.28300000000000003,1.733,0
5c91c01129b394001a4e473b,23,male,1,1,59,Ambigous_right,3,0,0,0,right,right,right,2,1,1,0.265,8,137,283,0.28300000000000003,1.733,0
5c91c01129b394001a4e473b,23,male,1,1,61,Ambigous_right,3,0,0,0,right,right,right,2,1,1,0.145,8,137,283,0.28300000000000003,1.733,0
5c91c01129b394001a4e473b,23,male,1,1,66,Ambigous_right,3,0,0,0,right,right,right,2,1,1,0.139,8,137,283,0.28300000000000003,1.733,0
5c91c01129b394001a4e473b,23,male,1,1,70,Ambigous_right,3,0,0,0,right,right,right,2,1,1,0.134,8,137,283,0.28300000000000003,1.733,0
5c91c01129b394001a4e473b,23,male,1,1,72,Ambigous_right,3,0,0,0,right,right,left,1,2,0,0.12,8,137,283,0.28300000000000003,1.733,1
5c91c01129b394001a4e473b,23,male,1,1,88,Ambigous_right,3,0,0,0,right,right,left,1,2,0,0.207,8,137,283,0.28300000000000003,1.733,1
5c91c01129b394001a4e473b,23,male,1,1,92,Ambigous_right,3,0,0,0,right,right,right,2,1,1,0.122,8,137,283,0.28300000000000003,1.733,0
5c91c01129b394001a4e473b,23,male,1,1,96,Ambigous_right,3,0,0,0,right,right,left,1,2,0,0.149,8,137,283,0.28300000000000003,1.733,1
5c91c01129b394001a4e473b,23,male,1,2,2,Ambigous_right,3,0,0,0,right,right,right,2,1,1,0.217,9,146,283,0.28300000000000003,1.733,0
5c91c01129b394001a4e473b,23,male,1,2,5,Ambigous_right,3,0,0,0,right,right,right,2,1,1,0.084,9,146,283,0.28300000000000003,1.733,0
5c91c01129b394001a4e473b,23,male,1,2,12,Ambigous_right,3,0,0,0,right,right,right,2,1,1,0.081,9,146,283,0.28300000000000003,1.733,0
5c91c01129b394001a4e473b,23,male,1,2,15,Ambigous_right,3,0,0,0,right,right,right,2,1,1,0.105,9,146,283,0.28300000000000003,1.733,0
5c91c01129b394001a4e473b,23,male,1,2,16,Ambigous_right,3,0,0,0,right,right,right,2,1,1,0.107,9,146,283,0.28300000000000003,1.733,0
5c91c01129b394001a4e473b,23,male,1,2,18,Ambigous_right,3,0,0,0,right,right,left,1,2,0,0.18,9,146,283,0.28300000000000003,1.733,1
5c91c01129b394001a4e473b,23,male,1,2,20,Ambigous_right,3,0,0,0,right,right,right,2,1,1,0.119,9,146,283,0.28300000000000003,1.733,0
5c91c01129b394001a4e473b,23,male,1,2,24,Ambigous_right,3,0,0,0,right,right,right,2,1,1,0.104,9,146,283,0.28300000000000003,1.733,0
5c91c01129b394001a4e473b,23,male,1,2,27,Ambigous_right,3,0,0,0,right,right,left,1,2,0,0.172,9,146,283,0.28300000000000003,1.733,1
5c91c01129b394001a4e473b,23,male,1,2,29,Ambigous_right,3,0,0,0,right,right,right,2,1,1,0.31,9,146,283,0.28300000000000003,1.733,0
5c91c01129b394001a4e473b,23,male,1,2,32,Ambigous_right,3,0,0,0,right,right,right,2,1,1,0.106,9,146,283,0.28300000000000003,1.733,0
5c91c01129b394001a4e473b,23,male,1,2,33,Ambigous_right,3,0,0,0,right,right,right,2,1,1,0.191,9,146,283,0.28300000000000003,1.733,0
5c91c01129b394001a4e473b,23,male,1,2,39,Ambigous_right,3,0,0,0,right,right,right,2,1,1,0.115,9,146,283,0.28300000000000003,1.733,0
5c91c01129b394001a4e473b,23,male,1,2,41,Ambigous_right,3,0,0,0,right,right,right,2,1,1,0.177,9,146,283,0.28300000000000003,1.733,0
5c91c01129b394001a4e473b,23,male,1,2,43,Ambigous_right,3,0,0,0,right,right,right,2,1,1,0.135,9,146,283,0.28300000000000003,1.733,0
5c91c01129b394001a4e473b,23,male,1,2,46,Ambigous_right,3,0,0,0,right,right,right,2,1,1,0.149,9,146,283,0.28300000000000003,1.733,0
5c91c01129b394001a4e473b,23,male,1,2,47,Ambigous_right,3,0,0,0,right,right,right,2,1,1,0.155,9,146,283,0.28300000000000003,1.733,0
5c91c01129b394001a4e473b,23,male,1,2,56,Ambigous_right,3,0,0,0,right,right,right,2,1,1,0.312,9,146,283,0.28300000000000003,1.733,0
5c91c01129b394001a4e473b,23,male,1,2,58,Ambigous_right,3,0,0,0,right,right,right,2,1,1,0.133,9,146,283,0.28300000000000003,1.733,0
5c91c01129b394001a4e473b,23,male,1,2,73,Ambigous_right,3,0,0,0,right,right,right,2,1,1,0.129,9,146,283,0.28300000000000003,1.733,0
5c91c01129b394001a4e473b,23,male,1,2,89,Ambigous_right,3,0,0,0,right,right,right,2,1,1,0.211,9,146,283,0.28300000000000003,1.733,0
5c91c01129b394001a4e473b,23,male,1,2,94,Ambigous_right,3,0,0,0,right,right,right,2,1,1,0.119,9,146,283,0.28300000000000003,1.733,0
5c91c01129b394001a4e473b,23,male,1,2,95,Ambigous_right,3,0,0,0,right,right,right,2,1,1,0.113,9,146,283,0.28300000000000003,1.733,0
5c91c01129b394001a4e473b,23,male,1,2,97,Ambigous_right,3,0,0,0,right,right,right,2,1,1,0.104,9,146,283,0.28300000000000003,1.733,0
5c91c01129b394001a4e473b,23,male,1,2,100,Ambigous_right,3,0,0,0,right,right,right,2,1,1,0.1,9,146,283,0.28300000000000003,1.733,0
5da6a24a5b8ad1001570f6ae,61,female,1,1,1,Ambigous_left,1,90,1,20,left,left,left,20,-19,1,0.369,10,889,1760,1.76,3.21,0
5da6a24a5b8ad1001570f6ae,61,female,1,1,10,Ambigous_left,1,90,1,20,left,left,left,20,-19,1,0.388,10,889,1760,1.76,3.21,0
5da6a24a5b8ad1001570f6ae,61,female,1,1,13,Ambigous_left,1,90,1,20,left,left,left,20,-19,1,0.363,10,889,1760,1.76,3.21,0
5da6a24a5b8ad1001570f6ae,61,female,1,1,14,Ambigous_left,1,90,1,20,left,left,left,20,-19,1,0.199,10,889,1760,1.76,3.21,0
5da6a24a5b8ad1001570f6ae,61,female,1,1,15,Ambigous_left,1,90,0,0,left,left,left,20,1,1,0.224,10,889,1760,1.76,3.21,0
5da6a24a5b8ad1001570f6ae,61,female,1,1,24,Ambigous_left,1,90,1,20,left,left,left,20,-19,1,0.213,10,889,1760,1.76,3.21,0
5da6a24a5b8ad1001570f6ae,61,female,1,1,25,Ambigous_left,1,90,0,0,left,left,left,20,1,1,0.198,10,889,1760,1.76,3.21,0
5da6a24a5b8ad1001570f6ae,61,female,1,1,31,Ambigous_left,1,90,1,20,left,left,left,20,-19,1,0.24,10,889,1760,1.76,3.21,0
5da6a24a5b8ad1001570f6ae,61,female,1,1,35,Ambigous_left,1,90,1,20,left,left,left,20,-19,1,0.354,10,889,1760,1.76,3.21,0
5da6a24a5b8ad1001570f6ae,61,female,1,1,40,Ambigous_left,1,90,1,20,left,left,left,20,-19,1,0.222,10,889,1760,1.76,3.21,0
5da6a24a5b8ad1001570f6ae,61,female,1,1,42,Ambigous_left,1,90,1,20,left,left,left,20,-19,1,0.306,10,889,1760,1.76,3.21,0
5da6a24a5b8ad1001570f6ae,61,female,1,1,48,Ambigous_left,1,90,1,20,left,left,left,20,-19,1,0.246,10,889,1760,1.76,3.21,0
5da6a24a5b8ad1001570f6ae,61,female,1,1,51,Ambigous_left,1,90,1,20,left,left,left,20,-19,1,0.239,10,889,1760,1.76,3.21,0
5da6a24a5b8ad1001570f6ae,61,female,1,1,53,Ambigous_left,1,90,1,20,left,left,left,20,-19,1,0.336,10,889,1760,1.76,3.21,0
5da6a24a5b8ad1001570f6ae,61,female,1,1,60,Ambigous_left,1,90,1,20,left,left,left,20,-19,1,0.202,10,889,1760,1.76,3.21,0
5da6a24a5b8ad1001570f6ae,61,female,1,1,61,Ambigous_left,1,90,1,20,left,left,left,20,-19,1,0.29600000000000004,10,889,1760,1.76,3.21,0
5da6a24a5b8ad1001570f6ae,61,female,1,1,62,Ambigous_left,1,90,1,20,left,left,left,20,-19,1,0.242,10,889,1760,1.76,3.21,0
5da6a24a5b8ad1001570f6ae,61,female,1,1,72,Ambigous_left,1,90,1,20,left,left,left,20,-19,1,0.194,10,889,1760,1.76,3.21,0
5da6a24a5b8ad1001570f6ae,61,female,1,1,78,Ambigous_left,1,90,1,20,left,left,left,20,-19,1,0.376,10,889,1760,1.76,3.21,0
5da6a24a5b8ad1001570f6ae,61,female,1,1,79,Ambigous_left,1,90,1,20,left,left,left,20,-19,1,0.193,10,889,1760,1.76,3.21,0
5da6a24a5b8ad1001570f6ae,61,female,1,1,84,Ambigous_left,1,90,1,20,left,left,left,20,-19,1,0.451,10,889,1760,1.76,3.21,0
5da6a24a5b8ad1001570f6ae,61,female,1,1,85,Ambigous_left,1,90,1,20,left,left,left,20,-19,1,0.238,10,889,1760,1.76,3.21,0
5da6a24a5b8ad1001570f6ae,61,female,1,1,88,Ambigous_left,1,90,1,20,left,left,left,20,-19,1,0.36,10,889,1760,1.76,3.21,0
5da6a24a5b8ad1001570f6ae,61,female,1,1,91,Ambigous_left,1,90,1,20,left,left,left,20,-19,1,0.339,10,889,1760,1.76,3.21,0
5da6a24a5b8ad1001570f6ae,61,female,1,1,95,Ambigous_left,1,90,1,20,left,left,left,20,-19,1,0.251,10,889,1760,1.76,3.21,0
5da6a24a5b8ad1001570f6ae,61,female,1,2,1,Ambigous_left,1,90,0,0,left,left,left,20,1,1,0.266,10,871,1760,1.76,3.21,0
5da6a24a5b8ad1001570f6ae,61,female,1,2,6,Ambigous_left,1,90,1,20,left,left,left,20,-19,1,0.36,10,871,1760,1.76,3.21,0
5da6a24a5b8ad1001570f6ae,61,female,1,2,9,Ambigous_left,1,90,1,20,left,left,left,20,-19,1,0.238,10,871,1760,1.76,3.21,0
5da6a24a5b8ad1001570f6ae,61,female,1,2,11,Ambigous_left,1,90,1,20,left,left,left,20,-19,1,0.502,10,871,1760,1.76,3.21,0
5da6a24a5b8ad1001570f6ae,61,female,1,2,13,Ambigous_left,1,90,1,20,left,left,left,20,-19,1,0.238,10,871,1760,1.76,3.21,0
5da6a24a5b8ad1001570f6ae,61,female,1,2,14,Ambigous_left,1,90,1,20,left,left,left,20,-19,1,0.35600000000000004,10,871,1760,1.76,3.21,0
5da6a24a5b8ad1001570f6ae,61,female,1,2,17,Ambigous_left,1,90,1,20,left,left,left,20,-19,1,0.373,10,871,1760,1.76,3.21,0
5da6a24a5b8ad1001570f6ae,61,female,1,2,23,Ambigous_left,1,90,0,0,left,left,left,20,1,1,0.285,10,871,1760,1.76,3.21,0
5da6a24a5b8ad1001570f6ae,61,female,1,2,30,Ambigous_left,1,90,1,20,left,left,left,20,-19,1,0.273,10,871,1760,1.76,3.21,0
5da6a24a5b8ad1001570f6ae,61,female,1,2,31,Ambigous_left,1,90,1,20,left,left,left,20,-19,1,0.406,10,871,1760,1.76,3.21,0
5da6a24a5b8ad1001570f6ae,61,female,1,2,36,Ambigous_left,1,90,1,20,left,left,left,20,-19,1,0.382,10,871,1760,1.76,3.21,0
5da6a24a5b8ad1001570f6ae,61,female,1,2,43,Ambigous_left,1,90,1,20,left,left,left,20,-19,1,0.208,10,871,1760,1.76,3.21,0
5da6a24a5b8ad1001570f6ae,61,female,1,2,53,Ambigous_left,1,90,1,20,left,left,left,20,-19,1,0.242,10,871,1760,1.76,3.21,0
5da6a24a5b8ad1001570f6ae,61,female,1,2,55,Ambigous_left,1,90,1,20,left,left,left,20,-19,1,0.35200000000000004,10,871,1760,1.76,3.21,0
5da6a24a5b8ad1001570f6ae,61,female,1,2,56,Ambigous_left,1,90,1,20,left,left,right,-19,0,0,0.507,10,871,1760,1.76,3.21,1
5da6a24a5b8ad1001570f6ae,61,female,1,2,58,Ambigous_left,1,90,1,20,left,left,left,20,-19,1,0.324,10,871,1760,1.76,3.21,0
5da6a24a5b8ad1001570f6ae,61,female,1,2,60,Ambigous_left,1,90,0,0,left,left,left,20,1,1,0.321,10,871,1760,1.76,3.21,0
5da6a24a5b8ad1001570f6ae,61,female,1,2,61,Ambigous_left,1,90,0,0,left,left,left,20,1,1,0.19,10,871,1760,1.76,3.21,0
5da6a24a5b8ad1001570f6ae,61,female,1,2,66,Ambigous_left,1,90,1,20,left,left,left,20,-19,1,0.302,10,871,1760,1.76,3.21,0
5da6a24a5b8ad1001570f6ae,61,female,1,2,74,Ambigous_left,1,90,1,20,left,left,left,20,-19,1,0.206,10,871,1760,1.76,3.21,0
5da6a24a5b8ad1001570f6ae,61,female,1,2,81,Ambigous_left,1,90,1,20,left,left,left,20,-19,1,0.18600000000000005,10,871,1760,1.76,3.21,0
5da6a24a5b8ad1001570f6ae,61,female,1,2,92,Ambigous_left,1,90,1,20,left,left,left,20,-19,1,0.249,10,871,1760,1.76,3.21,0
5da6a24a5b8ad1001570f6ae,61,female,1,2,94,Ambigous_left,1,90,1,20,left,left,left,20,-19,1,0.348,10,871,1760,1.76,3.21,0
5da6a24a5b8ad1001570f6ae,61,female,1,2,95,Ambigous_left,1,90,1,20,left,left,left,20,-19,1,0.229,10,871,1760,1.76,3.21,0
5da6a24a5b8ad1001570f6ae,61,female,1,2,97,Ambigous_left,1,90,1,20,left,left,left,20,-19,1,0.297,10,871,1760,1.76,3.21,0
5ddaf4f37aa0d6a6c2c53af6,27,female,1,1,2,Ambigous_left,2,10,0,0,left,left,left,20,1,1,0.054000000000000006,25,738,1409,1.409,2.859,0
5ddaf4f37aa0d6a6c2c53af6,27,female,1,1,5,Ambigous_left,2,10,0,0,left,left,right,1,20,0,0.07400000000000001,25,738,1409,1.409,2.859,1
5ddaf4f37aa0d6a6c2c53af6,27,female,1,1,14,Ambigous_left,2,10,0,0,left,left,left,20,1,1,0.06,25,738,1409,1.409,2.859,0
5ddaf4f37aa0d6a6c2c53af6,27,female,1,1,15,Ambigous_left,2,10,0,0,left,left,left,20,1,1,0.053,25,738,1409,1.409,2.859,0
5ddaf4f37aa0d6a6c2c53af6,27,female,1,1,16,Ambigous_left,2,10,0,0,left,left,left,20,1,1,0.059,25,738,1409,1.409,2.859,0
5ddaf4f37aa0d6a6c2c53af6,27,female,1,1,26,Ambigous_left,2,10,0,0,left,left,left,20,1,1,0.061,25,738,1409,1.409,2.859,0
5ddaf4f37aa0d6a6c2c53af6,27,female,1,1,30,Ambigous_left,2,10,0,0,left,left,left,20,1,1,0.065,25,738,1409,1.409,2.859,0
5ddaf4f37aa0d6a6c2c53af6,27,female,1,1,31,Ambigous_left,2,10,1,180,left,left,left,20,-179,1,0.059,25,738,1409,1.409,2.859,0
5ddaf4f37aa0d6a6c2c53af6,27,female,1,1,32,Ambigous_left,2,10,0,0,left,left,right,1,20,0,0.079,25,738,1409,1.409,2.859,1
5ddaf4f37aa0d6a6c2c53af6,27,female,1,1,37,Ambigous_left,2,10,0,0,left,left,left,20,1,1,0.064,25,738,1409,1.409,2.859,0
5ddaf4f37aa0d6a6c2c53af6,27,female,1,1,47,Ambigous_left,2,10,0,0,left,left,left,20,1,1,0.068,25,738,1409,1.409,2.859,0
5ddaf4f37aa0d6a6c2c53af6,27,female,1,1,50,Ambigous_left,2,10,0,0,left,left,left,20,1,1,0.057,25,738,1409,1.409,2.859,0
5ddaf4f37aa0d6a6c2c53af6,27,female,1,1,56,Ambigous_left,2,10,1,180,left,left,left,20,-179,1,0.026,25,738,1409,1.409,2.859,0
5ddaf4f37aa0d6a6c2c53af6,27,female,1,1,59,Ambigous_left,2,10,0,0,left,left,left,20,1,1,0.042,25,738,1409,1.409,2.859,0
5ddaf4f37aa0d6a6c2c53af6,27,female,1,1,61,Ambigous_left,2,10,0,0,left,left,left,20,1,1,0.054000000000000006,25,738,1409,1.409,2.859,0
5ddaf4f37aa0d6a6c2c53af6,27,female,1,1,65,Ambigous_left,2,10,1,180,left,left,left,20,-179,1,0.065,25,738,1409,1.409,2.859,0
5ddaf4f37aa0d6a6c2c53af6,27,female,1,1,66,Ambigous_left,2,10,0,0,left,left,left,20,1,1,0.128,25,738,1409,1.409,2.859,0
5ddaf4f37aa0d6a6c2c53af6,27,female,1,1,69,Ambigous_left,2,10,0,0,left,left,left,20,1,1,0.125,25,738,1409,1.409,2.859,0
5ddaf4f37aa0d6a6c2c53af6,27,female,1,1,72,Ambigous_left,2,10,1,180,left,left,left,20,-179,1,0.065,25,738,1409,1.409,2.859,0
5ddaf4f37aa0d6a6c2c53af6,27,female,1,1,76,Ambigous_left,2,10,0,0,left,left,left,20,1,1,0.09,25,738,1409,1.409,2.859,0
5ddaf4f37aa0d6a6c2c53af6,27,female,1,1,77,Ambigous_left,2,10,0,0,left,left,left,20,1,1,0.057,25,738,1409,1.409,2.859,0
5ddaf4f37aa0d6a6c2c53af6,27,female,1,1,80,Ambigous_left,2,10,1,180,left,left,left,20,-179,1,0.071,25,738,1409,1.409,2.859,0
5ddaf4f37aa0d6a6c2c53af6,27,female,1,1,90,Ambigous_left,2,10,0,0,left,left,left,20,1,1,0.064,25,738,1409,1.409,2.859,0
5ddaf4f37aa0d6a6c2c53af6,27,female,1,1,93,Ambigous_left,2,10,0,0,left,left,left,20,1,1,0.081,25,738,1409,1.409,2.859,0
5ddaf4f37aa0d6a6c2c53af6,27,female,1,1,95,Ambigous_left,2,10,0,0,left,left,left,20,1,1,0.067,25,738,1409,1.409,2.859,0
5ddaf4f37aa0d6a6c2c53af6,27,female,1,2,10,Ambigous_left,2,10,0,0,left,left,left,20,1,1,0.062,14,671,1409,1.409,2.859,0
5ddaf4f37aa0d6a6c2c53af6,27,female,1,2,12,Ambigous_left,2,10,0,0,left,left,left,20,1,1,0.043,14,671,1409,1.409,2.859,0
5ddaf4f37aa0d6a6c2c53af6,27,female,1,2,15,Ambigous_left,2,10,0,0,left,left,right,1,20,0,0.065,14,671,1409,1.409,2.859,1
5ddaf4f37aa0d6a6c2c53af6,27,female,1,2,22,Ambigous_left,2,10,0,0,left,left,left,20,1,1,0.059,14,671,1409,1.409,2.859,0
5ddaf4f37aa0d6a6c2c53af6,27,female,1,2,23,Ambigous_left,2,10,0,0,left,left,left,20,1,1,0.045,14,671,1409,1.409,2.859,0
5ddaf4f37aa0d6a6c2c53af6,27,female,1,2,29,Ambigous_left,2,10,0,0,left,left,left,20,1,1,0.07,14,671,1409,1.409,2.859,0
5ddaf4f37aa0d6a6c2c53af6,27,female,1,2,36,Ambigous_left,2,10,0,0,left,left,left,20,1,1,0.048,14,671,1409,1.409,2.859,0
5ddaf4f37aa0d6a6c2c53af6,27,female,1,2,37,Ambigous_left,2,10,0,0,left,left,left,20,1,1,0.056,14,671,1409,1.409,2.859,0
5ddaf4f37aa0d6a6c2c53af6,27,female,1,2,39,Ambigous_left,2,10,0,0,left,left,left,20,1,1,0.048,14,671,1409,1.409,2.859,0
5ddaf4f37aa0d6a6c2c53af6,27,female,1,2,46,Ambigous_left,2,10,0,0,left,left,left,20,1,1,0.052000000000000005,14,671,1409,1.409,2.859,0
5ddaf4f37aa0d6a6c2c53af6,27,female,1,2,48,Ambigous_left,2,10,0,0,left,left,left,20,1,1,0.061,14,671,1409,1.409,2.859,0
5ddaf4f37aa0d6a6c2c53af6,27,female,1,2,50,Ambigous_left,2,10,0,0,left,left,left,20,1,1,0.059,14,671,1409,1.409,2.859,0
5ddaf4f37aa0d6a6c2c53af6,27,female,1,2,52,Ambigous_left,2,10,1,180,left,left,right,-179,-160,0,0.046,14,671,1409,1.409,2.859,1
5ddaf4f37aa0d6a6c2c53af6,27,female,1,2,56,Ambigous_left,2,10,0,0,left,left,left,20,1,1,0.054000000000000006,14,671,1409,1.409,2.859,0
5ddaf4f37aa0d6a6c2c53af6,27,female,1,2,57,Ambigous_left,2,10,0,0,left,left,left,20,1,1,0.046,14,671,1409,1.409,2.859,0
5ddaf4f37aa0d6a6c2c53af6,27,female,1,2,63,Ambigous_left,2,10,0,0,left,left,left,20,1,1,0.057,14,671,1409,1.409,2.859,0
5ddaf4f37aa0d6a6c2c53af6,27,female,1,2,64,Ambigous_left,2,10,0,0,left,left,left,20,1,1,0.078,14,671,1409,1.409,2.859,0
5ddaf4f37aa0d6a6c2c53af6,27,female,1,2,65,Ambigous_left,2,10,0,0,left,left,left,20,1,1,0.069,14,671,1409,1.409,2.859,0
5ddaf4f37aa0d6a6c2c53af6,27,female,1,2,67,Ambigous_left,2,10,0,0,left,left,left,20,1,1,0.32299999999999995,14,671,1409,1.409,2.859,0
5ddaf4f37aa0d6a6c2c53af6,27,female,1,2,69,Ambigous_left,2,10,0,0,left,left,left,20,1,1,0.044,14,671,1409,1.409,2.859,0
5ddaf4f37aa0d6a6c2c53af6,27,female,1,2,71,Ambigous_left,2,10,1,180,left,left,left,20,-179,1,0.045,14,671,1409,1.409,2.859,0
5ddaf4f37aa0d6a6c2c53af6,27,female,1,2,73,Ambigous_left,2,10,1,180,left,left,left,20,-179,1,0.052000000000000005,14,671,1409,1.409,2.859,0
5ddaf4f37aa0d6a6c2c53af6,27,female,1,2,80,Ambigous_left,2,10,0,0,left,left,left,20,1,1,0.053,14,671,1409,1.409,2.859,0
5ddaf4f37aa0d6a6c2c53af6,27,female,1,2,97,Ambigous_left,2,10,0,0,left,left,left,20,1,1,0.083,14,671,1409,1.409,2.859,0
5ddaf4f37aa0d6a6c2c53af6,27,female,1,2,100,Ambigous_left,2,10,0,0,left,left,left,20,1,1,0.052000000000000005,14,671,1409,1.409,2.859,0
5e3974014e49b0000aea3d11,21,female,1,1,8,Ambigous_right,3,0,0,0,right,right,right,2,1,1,0.175,17,158,320,0.32,1.77,0
5e3974014e49b0000aea3d11,21,female,1,1,10,Ambigous_right,3,0,0,0,right,right,right,2,1,1,0.14400000000000002,17,158,320,0.32,1.77,0
5e3974014e49b0000aea3d11,21,female,1,1,13,Ambigous_right,3,0,0,0,right,right,right,2,1,1,0.152,17,158,320,0.32,1.77,0
5e3974014e49b0000aea3d11,21,female,1,1,15,Ambigous_right,3,0,0,0,right,right,right,2,1,1,0.16399999999999998,17,158,320,0.32,1.77,0
5e3974014e49b0000aea3d11,21,female,1,1,20,Ambigous_right,3,0,0,0,right,right,right,2,1,1,0.097,17,158,320,0.32,1.77,0
5e3974014e49b0000aea3d11,21,female,1,1,27,Ambigous_right,3,0,0,0,right,right,right,2,1,1,0.126,17,158,320,0.32,1.77,0
5e3974014e49b0000aea3d11,21,female,1,1,35,Ambigous_right,3,0,0,0,right,right,right,2,1,1,0.187,17,158,320,0.32,1.77,0
5e3974014e49b0000aea3d11,21,female,1,1,44,Ambigous_right,3,0,0,0,right,right,right,2,1,1,0.138,17,158,320,0.32,1.77,0
5e3974014e49b0000aea3d11,21,female,1,1,46,Ambigous_right,3,0,0,0,right,right,right,2,1,1,0.118,17,158,320,0.32,1.77,0
5e3974014e49b0000aea3d11,21,female,1,1,50,Ambigous_right,3,0,0,0,right,right,right,2,1,1,0.128,17,158,320,0.32,1.77,0
5e3974014e49b0000aea3d11,21,female,1,1,53,Ambigous_right,3,0,0,0,right,right,right,2,1,1,0.136,17,158,320,0.32,1.77,0
5e3974014e49b0000aea3d11,21,female,1,1,54,Ambigous_right,3,0,0,0,right,right,right,2,1,1,0.096,17,158,320,0.32,1.77,0
5e3974014e49b0000aea3d11,21,female,1,1,56,Ambigous_right,3,0,0,0,right,right,right,2,1,1,0.08900000000000001,17,158,320,0.32,1.77,0
5e3974014e49b0000aea3d11,21,female,1,1,58,Ambigous_right,3,0,0,0,right,right,right,2,1,1,0.17600000000000002,17,158,320,0.32,1.77,0
5e3974014e49b0000aea3d11,21,female,1,1,61,Ambigous_right,3,0,0,0,right,right,right,2,1,1,0.086,17,158,320,0.32,1.77,0
5e3974014e49b0000aea3d11,21,female,1,1,62,Ambigous_right,3,0,0,0,right,right,right,2,1,1,0.07400000000000001,17,158,320,0.32,1.77,0
5e3974014e49b0000aea3d11,21,female,1,1,66,Ambigous_right,3,0,0,0,right,right,right,2,1,1,0.079,17,158,320,0.32,1.77,0
5e3974014e49b0000aea3d11,21,female,1,1,73,Ambigous_right,3,0,0,0,right,right,right,2,1,1,0.11,17,158,320,0.32,1.77,0
5e3974014e49b0000aea3d11,21,female,1,1,75,Ambigous_right,3,0,0,0,right,right,right,2,1,1,0.081,17,158,320,0.32,1.77,0
5e3974014e49b0000aea3d11,21,female,1,1,83,Ambigous_right,3,0,0,0,right,right,right,2,1,1,0.12,17,158,320,0.32,1.77,0
5e3974014e49b0000aea3d11,21,female,1,1,87,Ambigous_right,3,0,0,0,right,right,right,2,1,1,0.14,17,158,320,0.32,1.77,0
5e3974014e49b0000aea3d11,21,female,1,1,90,Ambigous_right,3,0,0,0,right,right,right,2,1,1,0.077,17,158,320,0.32,1.77,0
5e3974014e49b0000aea3d11,21,female,1,1,93,Ambigous_right,3,0,0,0,right,right,right,2,1,1,0.105,17,158,320,0.32,1.77,0
5e3974014e49b0000aea3d11,21,female,1,1,95,Ambigous_right,3,0,0,0,right,right,right,2,1,1,0.093,17,158,320,0.32,1.77,0
5e3974014e49b0000aea3d11,21,female,1,1,98,Ambigous_right,3,0,0,0,right,right,right,2,1,1,0.08800000000000001,17,158,320,0.32,1.77,0
5e3974014e49b0000aea3d11,21,female,1,2,2,Ambigous_right,3,0,0,0,right,right,right,2,1,1,0.096,21,162,320,0.32,1.77,0
5e3974014e49b0000aea3d11,21,female,1,2,5,Ambigous_right,3,0,0,0,right,right,right,2,1,1,0.123,21,162,320,0.32,1.77,0
5e3974014e49b0000aea3d11,21,female,1,2,11,Ambigous_right,3,0,0,0,right,right,right,2,1,1,0.099,21,162,320,0.32,1.77,0
5e3974014e49b0000aea3d11,21,female,1,2,13,Ambigous_right,3,0,0,0,right,right,right,2,1,1,0.086,21,162,320,0.32,1.77,0
5e3974014e49b0000aea3d11,21,female,1,2,15,Ambigous_right,3,0,0,0,right,right,right,2,1,1,0.07200000000000001,21,162,320,0.32,1.77,0
5e3974014e49b0000aea3d11,21,female,1,2,16,Ambigous_right,3,0,0,0,right,right,right,2,1,1,0.076,21,162,320,0.32,1.77,0
5e3974014e49b0000aea3d11,21,female,1,2,17,Ambigous_right,3,0,0,0,right,right,right,2,1,1,0.08,21,162,320,0.32,1.77,0
5e3974014e49b0000aea3d11,21,female,1,2,18,Ambigous_right,3,0,0,0,right,right,right,2,1,1,0.08800000000000001,21,162,320,0.32,1.77,0
5e3974014e49b0000aea3d11,21,female,1,2,20,Ambigous_right,3,0,0,0,right,right,right,2,1,1,0.077,21,162,320,0.32,1.77,0
5e3974014e49b0000aea3d11,21,female,1,2,24,Ambigous_right,3,0,0,0,right,right,right,2,1,1,0.09,21,162,320,0.32,1.77,0
5e3974014e49b0000aea3d11,21,female,1,2,28,Ambigous_right,3,0,0,0,right,right,right,2,1,1,0.067,21,162,320,0.32,1.77,0
5e3974014e49b0000aea3d11,21,female,1,2,39,Ambigous_right,3,0,0,0,right,right,right,2,1,1,0.066,21,162,320,0.32,1.77,0
5e3974014e49b0000aea3d11,21,female,1,2,45,Ambigous_right,3,0,0,0,right,right,right,2,1,1,0.194,21,162,320,0.32,1.77,0
5e3974014e49b0000aea3d11,21,female,1,2,47,Ambigous_right,3,0,0,0,right,right,right,2,1,1,0.08800000000000001,21,162,320,0.32,1.77,0
5e3974014e49b0000aea3d11,21,female,1,2,51,Ambigous_right,3,0,0,0,right,right,right,2,1,1,0.183,21,162,320,0.32,1.77,0
5e3974014e49b0000aea3d11,21,female,1,2,52,Ambigous_right,3,0,0,0,right,right,right,2,1,1,0.087,21,162,320,0.32,1.77,0
5e3974014e49b0000aea3d11,21,female,1,2,53,Ambigous_right,3,0,0,0,right,right,right,2,1,1,0.108,21,162,320,0.32,1.77,0
5e3974014e49b0000aea3d11,21,female,1,2,58,Ambigous_right,3,0,0,0,right,right,right,2,1,1,0.1,21,162,320,0.32,1.77,0
5e3974014e49b0000aea3d11,21,female,1,2,62,Ambigous_right,3,0,0,0,right,right,right,2,1,1,0.113,21,162,320,0.32,1.77,0
5e3974014e49b0000aea3d11,21,female,1,2,65,Ambigous_right,3,0,0,0,right,right,right,2,1,1,0.107,21,162,320,0.32,1.77,0
5e3974014e49b0000aea3d11,21,female,1,2,84,Ambigous_right,3,0,0,0,right,right,right,2,1,1,0.078,21,162,320,0.32,1.77,0
5e3974014e49b0000aea3d11,21,female,1,2,85,Ambigous_right,3,0,0,0,right,right,right,2,1,1,0.064,21,162,320,0.32,1.77,0
5e3974014e49b0000aea3d11,21,female,1,2,87,Ambigous_right,3,0,0,0,right,right,right,2,1,1,0.07400000000000001,21,162,320,0.32,1.77,0
5e3974014e49b0000aea3d11,21,female,1,2,93,Ambigous_right,3,0,0,0,right,right,right,2,1,1,0.058,21,162,320,0.32,1.77,0
5e3974014e49b0000aea3d11,21,female,1,2,100,Ambigous_right,3,0,0,0,right,right,right,2,1,1,0.115,21,162,320,0.32,1.77,0
5e760b4d39c441170d9c9f1b,27,female,1,1,3,Ambigous_right,2,10,0,0,right,right,right,20,1,1,0.064,9,434,1313,1.3129999999999995,2.763,0
5e760b4d39c441170d9c9f1b,27,female,1,1,6,Ambigous_right,2,10,0,0,right,right,right,20,1,1,0.073,9,434,1313,1.3129999999999995,2.763,0
5e760b4d39c441170d9c9f1b,27,female,1,1,8,Ambigous_right,2,10,0,0,right,right,right,20,1,1,0.061,9,434,1313,1.3129999999999995,2.763,0
5e760b4d39c441170d9c9f1b,27,female,1,1,10,Ambigous_right,2,10,0,0,right,right,right,20,1,1,0.065,9,434,1313,1.3129999999999995,2.763,0
5e760b4d39c441170d9c9f1b,27,female,1,1,15,Ambigous_right,2,10,0,0,right,right,right,20,1,1,0.084,9,434,1313,1.3129999999999995,2.763,0
5e760b4d39c441170d9c9f1b,27,female,1,1,16,Ambigous_right,2,10,0,0,right,right,right,20,1,1,0.068,9,434,1313,1.3129999999999995,2.763,0
5e760b4d39c441170d9c9f1b,27,female,1,1,18,Ambigous_right,2,10,0,0,right,right,right,20,1,1,0.045,9,434,1313,1.3129999999999995,2.763,0
5e760b4d39c441170d9c9f1b,27,female,1,1,20,Ambigous_right,2,10,1,180,right,right,right,20,-179,1,0.065,9,434,1313,1.3129999999999995,2.763,0
5e760b4d39c441170d9c9f1b,27,female,1,1,22,Ambigous_right,2,10,1,180,right,right,right,20,-179,1,0.049,9,434,1313,1.3129999999999995,2.763,0
5e760b4d39c441170d9c9f1b,27,female,1,1,23,Ambigous_right,2,10,0,0,right,right,right,20,1,1,0.064,9,434,1313,1.3129999999999995,2.763,0
5e760b4d39c441170d9c9f1b,27,female,1,1,32,Ambigous_right,2,10,0,0,right,right,right,20,1,1,0.077,9,434,1313,1.3129999999999995,2.763,0
5e760b4d39c441170d9c9f1b,27,female,1,1,33,Ambigous_right,2,10,0,0,right,right,right,20,1,1,0.059,9,434,1313,1.3129999999999995,2.763,0
5e760b4d39c441170d9c9f1b,27,female,1,1,34,Ambigous_right,2,10,0,0,right,right,right,20,1,1,0.071,9,434,1313,1.3129999999999995,2.763,0
5e760b4d39c441170d9c9f1b,27,female,1,1,35,Ambigous_right,2,10,0,0,right,right,right,20,1,1,0.053,9,434,1313,1.3129999999999995,2.763,0
5e760b4d39c441170d9c9f1b,27,female,1,1,40,Ambigous_right,2,10,0,0,right,right,right,20,1,1,0.052000000000000005,9,434,1313,1.3129999999999995,2.763,0
5e760b4d39c441170d9c9f1b,27,female,1,1,54,Ambigous_right,2,10,0,0,right,right,right,20,1,1,0.108,9,434,1313,1.3129999999999995,2.763,0
5e760b4d39c441170d9c9f1b,27,female,1,1,62,Ambigous_right,2,10,0,0,right,right,right,20,1,1,0.057,9,434,1313,1.3129999999999995,2.763,0
5e760b4d39c441170d9c9f1b,27,female,1,1,64,Ambigous_right,2,10,0,0,right,right,left,1,20,0,0.07200000000000001,9,434,1313,1.3129999999999995,2.763,1
5e760b4d39c441170d9c9f1b,27,female,1,1,78,Ambigous_right,2,10,0,0,right,right,right,20,1,1,0.045,9,434,1313,1.3129999999999995,2.763,0
5e760b4d39c441170d9c9f1b,27,female,1,1,79,Ambigous_right,2,10,0,0,right,right,right,20,1,1,0.053,9,434,1313,1.3129999999999995,2.763,0
5e760b4d39c441170d9c9f1b,27,female,1,1,81,Ambigous_right,2,10,0,0,right,right,right,20,1,1,0.059,9,434,1313,1.3129999999999995,2.763,0
5e760b4d39c441170d9c9f1b,27,female,1,1,85,Ambigous_right,2,10,0,0,right,right,right,20,1,1,0.051,9,434,1313,1.3129999999999995,2.763,0
5e760b4d39c441170d9c9f1b,27,female,1,1,86,Ambigous_right,2,10,0,0,right,right,right,20,1,1,0.057,9,434,1313,1.3129999999999995,2.763,0
5e760b4d39c441170d9c9f1b,27,female,1,1,89,Ambigous_right,2,10,0,0,right,right,left,1,20,0,0.055,9,434,1313,1.3129999999999995,2.763,1
5e760b4d39c441170d9c9f1b,27,female,1,1,91,Ambigous_right,2,10,0,0,right,right,right,20,1,1,0.045,9,434,1313,1.3129999999999995,2.763,0
5e760b4d39c441170d9c9f1b,27,female,1,2,2,Ambigous_right,2,10,1,180,right,right,right,20,-179,1,0.109,6,879,1313,1.3129999999999995,2.763,0
5e760b4d39c441170d9c9f1b,27,female,1,2,3,Ambigous_right,2,10,0,0,right,right,right,20,1,1,0.064,6,879,1313,1.3129999999999995,2.763,0
5e760b4d39c441170d9c9f1b,27,female,1,2,13,Ambigous_right,2,10,0,0,right,right,right,20,1,1,0.066,6,879,1313,1.3129999999999995,2.763,0
5e760b4d39c441170d9c9f1b,27,female,1,2,18,Ambigous_right,2,10,0,0,right,right,right,20,1,1,0.08900000000000001,6,879,1313,1.3129999999999995,2.763,0
5e760b4d39c441170d9c9f1b,27,female,1,2,22,Ambigous_right,2,10,1,180,right,right,right,20,-179,1,0.063,6,879,1313,1.3129999999999995,2.763,0
5e760b4d39c441170d9c9f1b,27,female,1,2,26,Ambigous_right,2,10,0,0,right,right,right,20,1,1,0.064,6,879,1313,1.3129999999999995,2.763,0
5e760b4d39c441170d9c9f1b,27,female,1,2,28,Ambigous_right,2,10,0,0,right,right,right,20,1,1,0.058,6,879,1313,1.3129999999999995,2.763,0
5e760b4d39c441170d9c9f1b,27,female,1,2,29,Ambigous_right,2,10,0,0,right,right,right,20,1,1,0.059,6,879,1313,1.3129999999999995,2.763,0
5e760b4d39c441170d9c9f1b,27,female,1,2,30,Ambigous_right,2,10,1,180,right,right,right,20,-179,1,0.052000000000000005,6,879,1313,1.3129999999999995,2.763,0
5e760b4d39c441170d9c9f1b,27,female,1,2,34,Ambigous_right,2,10,0,0,right,right,left,1,20,0,0.063,6,879,1313,1.3129999999999995,2.763,1
5e760b4d39c441170d9c9f1b,27,female,1,2,46,Ambigous_right,2,10,0,0,right,right,right,20,1,1,0.057,6,879,1313,1.3129999999999995,2.763,0
5e760b4d39c441170d9c9f1b,27,female,1,2,53,Ambigous_right,2,10,0,0,right,right,right,20,1,1,0.055,6,879,1313,1.3129999999999995,2.763,0
5e760b4d39c441170d9c9f1b,27,female,1,2,59,Ambigous_right,2,10,0,0,right,right,right,20,1,1,0.05,6,879,1313,1.3129999999999995,2.763,0
5e760b4d39c441170d9c9f1b,27,female,1,2,61,Ambigous_right,2,10,0,0,right,right,right,20,1,1,0.049,6,879,1313,1.3129999999999995,2.763,0
5e760b4d39c441170d9c9f1b,27,female,1,2,63,Ambigous_right,2,10,0,0,right,right,right,20,1,1,0.059,6,879,1313,1.3129999999999995,2.763,0
5e760b4d39c441170d9c9f1b,27,female,1,2,66,Ambigous_right,2,10,0,0,right,right,right,20,1,1,0.05,6,879,1313,1.3129999999999995,2.763,0
5e760b4d39c441170d9c9f1b,27,female,1,2,67,Ambigous_right,2,10,0,0,right,right,right,20,1,1,0.053,6,879,1313,1.3129999999999995,2.763,0
5e760b4d39c441170d9c9f1b,27,female,1,2,68,Ambigous_right,2,10,0,0,right,right,right,20,1,1,0.05,6,879,1313,1.3129999999999995,2.763,0
5e760b4d39c441170d9c9f1b,27,female,1,2,69,Ambigous_right,2,10,0,0,right,right,right,20,1,1,0.057,6,879,1313,1.3129999999999995,2.763,0
5e760b4d39c441170d9c9f1b,27,female,1,2,76,Ambigous_right,2,10,0,0,right,right,right,20,1,1,0.043,6,879,1313,1.3129999999999995,2.763,0
5e760b4d39c441170d9c9f1b,27,female,1,2,82,Ambigous_right,2,10,0,0,right,right,left,1,20,0,0.093,6,879,1313,1.3129999999999995,2.763,1
5e760b4d39c441170d9c9f1b,27,female,1,2,87,Ambigous_right,2,10,0,0,right,right,right,20,1,1,0.063,6,879,1313,1.3129999999999995,2.763,0
5e760b4d39c441170d9c9f1b,27,female,1,2,88,Ambigous_right,2,10,0,0,right,right,left,1,20,0,0.073,6,879,1313,1.3129999999999995,2.763,1
5e760b4d39c441170d9c9f1b,27,female,1,2,95,Ambigous_right,2,10,0,0,right,right,right,20,1,1,0.063,6,879,1313,1.3129999999999995,2.763,0
5e760b4d39c441170d9c9f1b,27,female,1,2,99,Ambigous_right,2,10,1,180,right,right,right,20,-179,1,0.064,6,879,1313,1.3129999999999995,2.763,0
5e91d94b473d044febfef650,18,male,1,1,1,Ambigous_left,3,0,0,0,left,left,left,2,1,1,0.455,19,150,291,0.29100000000000004,1.7409999999999999,0
5e91d94b473d044febfef650,18,male,1,1,10,Ambigous_left,3,0,0,0,left,left,left,2,1,1,0.189,19,150,291,0.29100000000000004,1.7409999999999999,0
5e91d94b473d044febfef650,18,male,1,1,16,Ambigous_left,3,0,0,0,left,left,right,1,2,0,0.349,19,150,291,0.29100000000000004,1.7409999999999999,1
5e91d94b473d044febfef650,18,male,1,1,19,Ambigous_left,3,0,0,0,left,left,left,2,1,1,0.165,19,150,291,0.29100000000000004,1.7409999999999999,0
5e91d94b473d044febfef650,18,male,1,1,20,Ambigous_left,3,0,0,0,left,left,left,2,1,1,0.165,19,150,291,0.29100000000000004,1.7409999999999999,0
5e91d94b473d044febfef650,18,male,1,1,21,Ambigous_left,3,0,0,0,left,left,left,2,1,1,0.136,19,150,291,0.29100000000000004,1.7409999999999999,0
5e91d94b473d044febfef650,18,male,1,1,24,Ambigous_left,3,0,0,0,left,left,left,2,1,1,0.195,19,150,291,0.29100000000000004,1.7409999999999999,0
5e91d94b473d044febfef650,18,male,1,1,26,Ambigous_left,3,0,0,0,left,left,left,2,1,1,0.215,19,150,291,0.29100000000000004,1.7409999999999999,0
5e91d94b473d044febfef650,18,male,1,1,35,Ambigous_left,3,0,0,0,left,left,left,2,1,1,0.205,19,150,291,0.29100000000000004,1.7409999999999999,0
5e91d94b473d044febfef650,18,male,1,1,39,Ambigous_left,3,0,0,0,left,left,left,2,1,1,0.174,19,150,291,0.29100000000000004,1.7409999999999999,0
5e91d94b473d044febfef650,18,male,1,1,40,Ambigous_left,3,0,0,0,left,left,left,2,1,1,0.159,19,150,291,0.29100000000000004,1.7409999999999999,0
5e91d94b473d044febfef650,18,male,1,1,45,Ambigous_left,3,0,0,0,left,left,left,2,1,1,0.135,19,150,291,0.29100000000000004,1.7409999999999999,0
5e91d94b473d044febfef650,18,male,1,1,49,Ambigous_left,3,0,0,0,left,left,left,2,1,1,0.189,19,150,291,0.29100000000000004,1.7409999999999999,0
5e91d94b473d044febfef650,18,male,1,1,51,Ambigous_left,3,0,0,0,left,left,left,2,1,1,0.134,19,150,291,0.29100000000000004,1.7409999999999999,0
5e91d94b473d044febfef650,18,male,1,1,58,Ambigous_left,3,0,0,0,left,left,right,1,2,0,0.187,19,150,291,0.29100000000000004,1.7409999999999999,1
5e91d94b473d044febfef650,18,male,1,1,60,Ambigous_left,3,0,0,0,left,left,left,2,1,1,0.139,19,150,291,0.29100000000000004,1.7409999999999999,0
5e91d94b473d044febfef650,18,male,1,1,61,Ambigous_left,3,0,0,0,left,left,left,2,1,1,0.16899999999999998,19,150,291,0.29100000000000004,1.7409999999999999,0
5e91d94b473d044febfef650,18,male,1,1,67,Ambigous_left,3,0,0,0,left,left,left,2,1,1,0.13699999999999998,19,150,291,0.29100000000000004,1.7409999999999999,0
5e91d94b473d044febfef650,18,male,1,1,71,Ambigous_left,3,0,0,0,left,left,left,2,1,1,0.262,19,150,291,0.29100000000000004,1.7409999999999999,0
5e91d94b473d044febfef650,18,male,1,1,80,Ambigous_left,3,0,0,0,left,left,left,2,1,1,0.135,19,150,291,0.29100000000000004,1.7409999999999999,0
5e91d94b473d044febfef650,18,male,1,1,83,Ambigous_left,3,0,0,0,left,left,right,1,2,0,0.156,19,150,291,0.29100000000000004,1.7409999999999999,1
5e91d94b473d044febfef650,18,male,1,1,85,Ambigous_left,3,0,0,0,left,left,left,2,1,1,0.156,19,150,291,0.29100000000000004,1.7409999999999999,0
5e91d94b473d044febfef650,18,male,1,1,86,Ambigous_left,3,0,0,0,left,left,right,1,2,0,0.153,19,150,291,0.29100000000000004,1.7409999999999999,1
5e91d94b473d044febfef650,18,male,1,1,91,Ambigous_left,3,0,0,0,left,left,left,2,1,1,0.138,19,150,291,0.29100000000000004,1.7409999999999999,0
5e91d94b473d044febfef650,18,male,1,1,96,Ambigous_left,3,0,0,0,left,left,left,2,1,1,0.126,19,150,291,0.29100000000000004,1.7409999999999999,0
5e91d94b473d044febfef650,18,male,1,2,1,Ambigous_left,3,0,0,0,left,left,left,2,1,1,0.126,12,141,291,0.29100000000000004,1.7409999999999999,0
5e91d94b473d044febfef650,18,male,1,2,10,Ambigous_left,3,0,0,0,left,left,left,2,1,1,0.128,12,141,291,0.29100000000000004,1.7409999999999999,0
5e91d94b473d044febfef650,18,male,1,2,16,Ambigous_left,3,0,0,0,left,left,left,2,1,1,0.124,12,141,291,0.29100000000000004,1.7409999999999999,0
5e91d94b473d044febfef650,18,male,1,2,20,Ambigous_left,3,0,0,0,left,left,left,2,1,1,0.141,12,141,291,0.29100000000000004,1.7409999999999999,0
5e91d94b473d044febfef650,18,male,1,2,21,Ambigous_left,3,0,0,0,left,left,right,1,2,0,0.136,12,141,291,0.29100000000000004,1.7409999999999999,1
5e91d94b473d044febfef650,18,male,1,2,28,Ambigous_left,3,0,0,0,left,left,right,1,2,0,0.171,12,141,291,0.29100000000000004,1.7409999999999999,1
5e91d94b473d044febfef650,18,male,1,2,31,Ambigous_left,3,0,0,0,left,left,left,2,1,1,0.14300000000000002,12,141,291,0.29100000000000004,1.7409999999999999,0
5e91d94b473d044febfef650,18,male,1,2,40,Ambigous_left,3,0,0,0,left,left,left,2,1,1,0.128,12,141,291,0.29100000000000004,1.7409999999999999,0
5e91d94b473d044febfef650,18,male,1,2,41,Ambigous_left,3,0,0,0,left,left,left,2,1,1,0.188,12,141,291,0.29100000000000004,1.7409999999999999,0
5e91d94b473d044febfef650,18,male,1,2,51,Ambigous_left,3,0,0,0,left,left,left,2,1,1,0.191,12,141,291,0.29100000000000004,1.7409999999999999,0
5e91d94b473d044febfef650,18,male,1,2,53,Ambigous_left,3,0,0,0,left,left,left,2,1,1,0.12,12,141,291,0.29100000000000004,1.7409999999999999,0
5e91d94b473d044febfef650,18,male,1,2,54,Ambigous_left,3,0,0,0,left,left,left,2,1,1,0.192,12,141,291,0.29100000000000004,1.7409999999999999,0
5e91d94b473d044febfef650,18,male,1,2,55,Ambigous_left,3,0,0,0,left,left,right,1,2,0,0.59,12,141,291,0.29100000000000004,1.7409999999999999,1
5e91d94b473d044febfef650,18,male,1,2,56,Ambigous_left,3,0,0,0,left,left,left,2,1,1,0.166,12,141,291,0.29100000000000004,1.7409999999999999,0
5e91d94b473d044febfef650,18,male,1,2,58,Ambigous_left,3,0,0,0,left,left,right,1,2,0,0.138,12,141,291,0.29100000000000004,1.7409999999999999,1
5e91d94b473d044febfef650,18,male,1,2,67,Ambigous_left,3,0,0,0,left,left,left,2,1,1,0.141,12,141,291,0.29100000000000004,1.7409999999999999,0
5e91d94b473d044febfef650,18,male,1,2,73,Ambigous_left,3,0,0,0,left,left,left,2,1,1,0.14,12,141,291,0.29100000000000004,1.7409999999999999,0
5e91d94b473d044febfef650,18,male,1,2,84,Ambigous_left,3,0,0,0,left,left,left,2,1,1,0.14400000000000002,12,141,291,0.29100000000000004,1.7409999999999999,0
5e91d94b473d044febfef650,18,male,1,2,85,Ambigous_left,3,0,0,0,left,left,right,1,2,0,0.174,12,141,291,0.29100000000000004,1.7409999999999999,1
5e91d94b473d044febfef650,18,male,1,2,86,Ambigous_left,3,0,0,0,left,left,left,2,1,1,0.277,12,141,291,0.29100000000000004,1.7409999999999999,0
5e91d94b473d044febfef650,18,male,1,2,89,Ambigous_left,3,0,0,0,left,left,right,1,2,0,0.157,12,141,291,0.29100000000000004,1.7409999999999999,1
5e91d94b473d044febfef650,18,male,1,2,90,Ambigous_left,3,0,0,0,left,left,left,2,1,1,0.182,12,141,291,0.29100000000000004,1.7409999999999999,0
5e91d94b473d044febfef650,18,male,1,2,92,Ambigous_left,3,0,0,0,left,left,left,2,1,1,0.175,12,141,291,0.29100000000000004,1.7409999999999999,0
5e91d94b473d044febfef650,18,male,1,2,94,Ambigous_left,3,0,0,0,left,left,left,2,1,1,0.166,12,141,291,0.29100000000000004,1.7409999999999999,0
5e91d94b473d044febfef650,18,male,1,2,96,Ambigous_left,3,0,0,0,left,left,left,2,1,1,0.117,12,141,291,0.29100000000000004,1.7409999999999999,0
5eae4c54e1015a50baf832cb,26,female,0,1,6,Ambigous_left,1,90,1,20,left,left,left,20,-19,1,0.3670000000000001,14,771,1561,1.561,3.011,0
5eae4c54e1015a50baf832cb,26,female,0,1,10,Ambigous_left,1,90,1,20,left,left,left,20,-19,1,0.234,14,771,1561,1.561,3.011,0
5eae4c54e1015a50baf832cb,26,female,0,1,17,Ambigous_left,1,90,1,20,left,left,left,20,-19,1,0.279,14,771,1561,1.561,3.011,0
5eae4c54e1015a50baf832cb,26,female,0,1,21,Ambigous_left,1,90,1,20,left,left,left,20,-19,1,0.278,14,771,1561,1.561,3.011,0
5eae4c54e1015a50baf832cb,26,female,0,1,23,Ambigous_left,1,90,1,20,left,left,left,20,-19,1,0.213,14,771,1561,1.561,3.011,0
5eae4c54e1015a50baf832cb,26,female,0,1,27,Ambigous_left,1,90,0,0,left,left,left,20,1,1,0.329,14,771,1561,1.561,3.011,0
5eae4c54e1015a50baf832cb,26,female,0,1,42,Ambigous_left,1,90,1,20,left,left,left,20,-19,1,0.193,14,771,1561,1.561,3.011,0
5eae4c54e1015a50baf832cb,26,female,0,1,46,Ambigous_left,1,90,1,20,left,left,left,20,-19,1,0.17800000000000002,14,771,1561,1.561,3.011,0
5eae4c54e1015a50baf832cb,26,female,0,1,47,Ambigous_left,1,90,1,20,left,left,left,20,-19,1,0.177,14,771,1561,1.561,3.011,0
5eae4c54e1015a50baf832cb,26,female,0,1,49,Ambigous_left,1,90,1,20,left,left,left,20,-19,1,0.152,14,771,1561,1.561,3.011,0
5eae4c54e1015a50baf832cb,26,female,0,1,54,Ambigous_left,1,90,1,20,left,left,left,20,-19,1,0.302,14,771,1561,1.561,3.011,0
5eae4c54e1015a50baf832cb,26,female,0,1,56,Ambigous_left,1,90,0,0,left,left,left,20,1,1,0.214,14,771,1561,1.561,3.011,0
5eae4c54e1015a50baf832cb,26,female,0,1,58,Ambigous_left,1,90,1,20,left,left,right,-19,0,0,0.463,14,771,1561,1.561,3.011,1
5eae4c54e1015a50baf832cb,26,female,0,1,59,Ambigous_left,1,90,1,20,left,left,left,20,-19,1,0.185,14,771,1561,1.561,3.011,0
5eae4c54e1015a50baf832cb,26,female,0,1,60,Ambigous_left,1,90,1,20,left,left,left,20,-19,1,0.17600000000000002,14,771,1561,1.561,3.011,0
5eae4c54e1015a50baf832cb,26,female,0,1,64,Ambigous_left,1,90,1,20,left,left,left,20,-19,1,0.202,14,771,1561,1.561,3.011,0
5eae4c54e1015a50baf832cb,26,female,0,1,65,Ambigous_left,1,90,1,20,left,left,left,20,-19,1,0.221,14,771,1561,1.561,3.011,0
5eae4c54e1015a50baf832cb,26,female,0,1,66,Ambigous_left,1,90,1,20,left,left,left,20,-19,1,0.177,14,771,1561,1.561,3.011,0
5eae4c54e1015a50baf832cb,26,female,0,1,68,Ambigous_left,1,90,1,20,left,left,left,20,-19,1,0.17800000000000002,14,771,1561,1.561,3.011,0
5eae4c54e1015a50baf832cb,26,female,0,1,73,Ambigous_left,1,90,1,20,left,left,left,20,-19,1,0.224,14,771,1561,1.561,3.011,0
5eae4c54e1015a50baf832cb,26,female,0,1,88,Ambigous_left,1,90,1,20,left,left,left,20,-19,1,0.18600000000000005,14,771,1561,1.561,3.011,0
5eae4c54e1015a50baf832cb,26,female,0,1,89,Ambigous_left,1,90,1,20,left,left,right,-19,0,0,0.28,14,771,1561,1.561,3.011,1
5eae4c54e1015a50baf832cb,26,female,0,1,95,Ambigous_left,1,90,1,20,left,left,left,20,-19,1,0.2,14,771,1561,1.561,3.011,0
5eae4c54e1015a50baf832cb,26,female,0,1,96,Ambigous_left,1,90,1,20,left,left,left,20,-19,1,0.191,14,771,1561,1.561,3.011,0
5eae4c54e1015a50baf832cb,26,female,0,1,99,Ambigous_left,1,90,1,20,left,left,left,20,-19,1,0.22,14,771,1561,1.561,3.011,0
5eae4c54e1015a50baf832cb,26,female,0,2,1,Ambigous_left,1,90,1,20,left,left,left,20,-19,1,0.194,15,790,1561,1.561,3.011,0
5eae4c54e1015a50baf832cb,26,female,0,2,13,Ambigous_left,1,90,1,20,left,left,left,20,-19,1,0.203,15,790,1561,1.561,3.011,0
5eae4c54e1015a50baf832cb,26,female,0,2,17,Ambigous_left,1,90,1,20,left,left,left,20,-19,1,0.247,15,790,1561,1.561,3.011,0
5eae4c54e1015a50baf832cb,26,female,0,2,18,Ambigous_left,1,90,1,20,left,left,left,20,-19,1,0.236,15,790,1561,1.561,3.011,0
5eae4c54e1015a50baf832cb,26,female,0,2,21,Ambigous_left,1,90,1,20,left,left,left,20,-19,1,0.202,15,790,1561,1.561,3.011,0
5eae4c54e1015a50baf832cb,26,female,0,2,22,Ambigous_left,1,90,1,20,left,left,left,20,-19,1,0.172,15,790,1561,1.561,3.011,0
5eae4c54e1015a50baf832cb,26,female,0,2,25,Ambigous_left,1,90,1,20,left,left,left,20,-19,1,0.229,15,790,1561,1.561,3.011,0
5eae4c54e1015a50baf832cb,26,female,0,2,27,Ambigous_left,1,90,0,0,left,left,left,20,1,1,0.14300000000000002,15,790,1561,1.561,3.011,0
5eae4c54e1015a50baf832cb,26,female,0,2,29,Ambigous_left,1,90,0,0,left,left,left,20,1,1,0.217,15,790,1561,1.561,3.011,0
5eae4c54e1015a50baf832cb,26,female,0,2,32,Ambigous_left,1,90,1,20,left,left,left,20,-19,1,0.159,15,790,1561,1.561,3.011,0
5eae4c54e1015a50baf832cb,26,female,0,2,34,Ambigous_left,1,90,1,20,left,left,right,-19,0,0,0.189,15,790,1561,1.561,3.011,1
5eae4c54e1015a50baf832cb,26,female,0,2,35,Ambigous_left,1,90,1,20,left,left,right,-19,0,0,0.281,15,790,1561,1.561,3.011,1
5eae4c54e1015a50baf832cb,26,female,0,2,40,Ambigous_left,1,90,1,20,left,left,left,20,-19,1,0.189,15,790,1561,1.561,3.011,0
5eae4c54e1015a50baf832cb,26,female,0,2,41,Ambigous_left,1,90,1,20,left,left,left,20,-19,1,0.174,15,790,1561,1.561,3.011,0
5eae4c54e1015a50baf832cb,26,female,0,2,47,Ambigous_left,1,90,1,20,left,left,left,20,-19,1,0.182,15,790,1561,1.561,3.011,0
5eae4c54e1015a50baf832cb,26,female,0,2,51,Ambigous_left,1,90,1,20,left,left,left,20,-19,1,0.194,15,790,1561,1.561,3.011,0
5eae4c54e1015a50baf832cb,26,female,0,2,52,Ambigous_left,1,90,1,20,left,left,left,20,-19,1,0.172,15,790,1561,1.561,3.011,0
5eae4c54e1015a50baf832cb,26,female,0,2,59,Ambigous_left,1,90,1,20,left,left,left,20,-19,1,0.2,15,790,1561,1.561,3.011,0
5eae4c54e1015a50baf832cb,26,female,0,2,60,Ambigous_left,1,90,1,20,left,left,left,20,-19,1,0.17600000000000002,15,790,1561,1.561,3.011,0
5eae4c54e1015a50baf832cb,26,female,0,2,67,Ambigous_left,1,90,1,20,left,left,left,20,-19,1,0.275,15,790,1561,1.561,3.011,0
5eae4c54e1015a50baf832cb,26,female,0,2,68,Ambigous_left,1,90,1,20,left,left,left,20,-19,1,0.184,15,790,1561,1.561,3.011,0
5eae4c54e1015a50baf832cb,26,female,0,2,69,Ambigous_left,1,90,1,20,left,left,right,-19,0,0,0.297,15,790,1561,1.561,3.011,1
5eae4c54e1015a50baf832cb,26,female,0,2,74,Ambigous_left,1,90,1,20,left,left,left,20,-19,1,0.196,15,790,1561,1.561,3.011,0
5eae4c54e1015a50baf832cb,26,female,0,2,91,Ambigous_left,1,90,1,20,left,left,left,20,-19,1,0.3670000000000001,15,790,1561,1.561,3.011,0
5eae4c54e1015a50baf832cb,26,female,0,2,99,Ambigous_left,1,90,1,20,left,left,left,20,-19,1,0.25,15,790,1561,1.561,3.011,0
5ecc3b8a119a5e800ca47d80,20,female,0,1,11,Ambigous_right,1,90,1,20,right,right,right,20,-19,1,0.329,19,632,1344,1.344,2.794,0
5ecc3b8a119a5e800ca47d80,20,female,0,1,16,Ambigous_right,1,90,1,20,right,right,right,20,-19,1,0.222,19,632,1344,1.344,2.794,0
5ecc3b8a119a5e800ca47d80,20,female,0,1,22,Ambigous_right,1,90,1,20,right,right,right,20,-19,1,0.152,19,632,1344,1.344,2.794,0
5ecc3b8a119a5e800ca47d80,20,female,0,1,26,Ambigous_right,1,90,1,20,right,right,right,20,-19,1,0.182,19,632,1344,1.344,2.794,0
5ecc3b8a119a5e800ca47d80,20,female,0,1,27,Ambigous_right,1,90,1,20,right,right,right,20,-19,1,0.14800000000000002,19,632,1344,1.344,2.794,0
5ecc3b8a119a5e800ca47d80,20,female,0,1,30,Ambigous_right,1,90,1,20,right,right,left,-19,0,0,0.121,19,632,1344,1.344,2.794,1
5ecc3b8a119a5e800ca47d80,20,female,0,1,36,Ambigous_right,1,90,1,20,right,right,right,20,-19,1,0.205,19,632,1344,1.344,2.794,0
5ecc3b8a119a5e800ca47d80,20,female,0,1,50,Ambigous_right,1,90,1,20,right,right,right,20,-19,1,0.122,19,632,1344,1.344,2.794,0
5ecc3b8a119a5e800ca47d80,20,female,0,1,51,Ambigous_right,1,90,1,20,right,right,left,-19,0,0,0.129,19,632,1344,1.344,2.794,1
5ecc3b8a119a5e800ca47d80,20,female,0,1,53,Ambigous_right,1,90,1,20,right,right,right,20,-19,1,0.138,19,632,1344,1.344,2.794,0
5ecc3b8a119a5e800ca47d80,20,female,0,1,54,Ambigous_right,1,90,1,20,right,right,right,20,-19,1,0.136,19,632,1344,1.344,2.794,0
5ecc3b8a119a5e800ca47d80,20,female,0,1,59,Ambigous_right,1,90,1,20,right,right,right,20,-19,1,0.109,19,632,1344,1.344,2.794,0
5ecc3b8a119a5e800ca47d80,20,female,0,1,63,Ambigous_right,1,90,1,20,right,right,right,20,-19,1,0.119,19,632,1344,1.344,2.794,0
5ecc3b8a119a5e800ca47d80,20,female,0,1,75,Ambigous_right,1,90,1,20,right,right,right,20,-19,1,0.177,19,632,1344,1.344,2.794,0
5ecc3b8a119a5e800ca47d80,20,female,0,1,76,Ambigous_right,1,90,1,20,right,right,right,20,-19,1,0.084,19,632,1344,1.344,2.794,0
5ecc3b8a119a5e800ca47d80,20,female,0,1,77,Ambigous_right,1,90,1,20,right,right,left,-19,0,0,0.11,19,632,1344,1.344,2.794,1
5ecc3b8a119a5e800ca47d80,20,female,0,1,84,Ambigous_right,1,90,1,20,right,right,right,20,-19,1,0.099,19,632,1344,1.344,2.794,0
5ecc3b8a119a5e800ca47d80,20,female,0,1,85,Ambigous_right,1,90,1,20,right,right,right,20,-19,1,0.097,19,632,1344,1.344,2.794,0
5ecc3b8a119a5e800ca47d80,20,female,0,1,88,Ambigous_right,1,90,1,20,right,right,right,20,-19,1,0.076,19,632,1344,1.344,2.794,0
5ecc3b8a119a5e800ca47d80,20,female,0,1,89,Ambigous_right,1,90,1,20,right,right,left,-19,0,0,0.099,19,632,1344,1.344,2.794,1
5ecc3b8a119a5e800ca47d80,20,female,0,1,90,Ambigous_right,1,90,1,20,right,right,right,20,-19,1,0.029,19,632,1344,1.344,2.794,0
5ecc3b8a119a5e800ca47d80,20,female,0,1,92,Ambigous_right,1,90,1,20,right,right,right,20,-19,1,0.139,19,632,1344,1.344,2.794,0
5ecc3b8a119a5e800ca47d80,20,female,0,1,96,Ambigous_right,1,90,1,20,right,right,right,20,-19,1,0.11,19,632,1344,1.344,2.794,0
5ecc3b8a119a5e800ca47d80,20,female,0,1,97,Ambigous_right,1,90,1,20,right,right,left,-19,0,0,0.173,19,632,1344,1.344,2.794,1
5ecc3b8a119a5e800ca47d80,20,female,0,1,99,Ambigous_right,1,90,1,20,right,right,right,20,-19,1,0.103,19,632,1344,1.344,2.794,0
5ecc3b8a119a5e800ca47d80,20,female,0,2,5,Ambigous_right,1,90,1,20,right,right,right,20,-19,1,0.11,17,712,1344,1.344,2.794,0
5ecc3b8a119a5e800ca47d80,20,female,0,2,10,Ambigous_right,1,90,0,0,right,right,left,1,20,0,0.179,17,712,1344,1.344,2.794,1
5ecc3b8a119a5e800ca47d80,20,female,0,2,18,Ambigous_right,1,90,1,20,right,right,left,-19,0,0,0.32,17,712,1344,1.344,2.794,1
5ecc3b8a119a5e800ca47d80,20,female,0,2,21,Ambigous_right,1,90,1,20,right,right,right,20,-19,1,0.129,17,712,1344,1.344,2.794,0
5ecc3b8a119a5e800ca47d80,20,female,0,2,22,Ambigous_right,1,90,1,20,right,right,right,20,-19,1,0.094,17,712,1344,1.344,2.794,0
5ecc3b8a119a5e800ca47d80,20,female,0,2,24,Ambigous_right,1,90,1,20,right,right,right,20,-19,1,0.158,17,712,1344,1.344,2.794,0
5ecc3b8a119a5e800ca47d80,20,female,0,2,26,Ambigous_right,1,90,1,20,right,right,right,20,-19,1,0.155,17,712,1344,1.344,2.794,0
5ecc3b8a119a5e800ca47d80,20,female,0,2,41,Ambigous_right,1,90,1,20,right,right,right,20,-19,1,0.113,17,712,1344,1.344,2.794,0
5ecc3b8a119a5e800ca47d80,20,female,0,2,43,Ambigous_right,1,90,1,20,right,right,right,20,-19,1,0.14400000000000002,17,712,1344,1.344,2.794,0
5ecc3b8a119a5e800ca47d80,20,female,0,2,51,Ambigous_right,1,90,1,20,right,right,right,20,-19,1,0.273,17,712,1344,1.344,2.794,0
5ecc3b8a119a5e800ca47d80,20,female,0,2,55,Ambigous_right,1,90,1,20,right,right,right,20,-19,1,0.17600000000000002,17,712,1344,1.344,2.794,0
5ecc3b8a119a5e800ca47d80,20,female,0,2,56,Ambigous_right,1,90,1,20,right,right,right,20,-19,1,0.149,17,712,1344,1.344,2.794,0
5ecc3b8a119a5e800ca47d80,20,female,0,2,60,Ambigous_right,1,90,1,20,right,right,right,20,-19,1,0.173,17,712,1344,1.344,2.794,0
5ecc3b8a119a5e800ca47d80,20,female,0,2,63,Ambigous_right,1,90,0,0,right,right,right,20,1,1,0.113,17,712,1344,1.344,2.794,0
5ecc3b8a119a5e800ca47d80,20,female,0,2,66,Ambigous_right,1,90,1,20,right,right,right,20,-19,1,0.204,17,712,1344,1.344,2.794,0
5ecc3b8a119a5e800ca47d80,20,female,0,2,70,Ambigous_right,1,90,1,20,right,right,right,20,-19,1,0.177,17,712,1344,1.344,2.794,0
5ecc3b8a119a5e800ca47d80,20,female,0,2,80,Ambigous_right,1,90,1,20,right,right,right,20,-19,1,0.152,17,712,1344,1.344,2.794,0
5ecc3b8a119a5e800ca47d80,20,female,0,2,81,Ambigous_right,1,90,1,20,right,right,left,-19,0,0,0.16,17,712,1344,1.344,2.794,1
5ecc3b8a119a5e800ca47d80,20,female,0,2,84,Ambigous_right,1,90,1,20,right,right,right,20,-19,1,0.152,17,712,1344,1.344,2.794,0
5ecc3b8a119a5e800ca47d80,20,female,0,2,87,Ambigous_right,1,90,1,20,right,right,left,-19,0,0,0.14,17,712,1344,1.344,2.794,1
5ecc3b8a119a5e800ca47d80,20,female,0,2,88,Ambigous_right,1,90,1,20,right,right,left,-19,0,0,0.135,17,712,1344,1.344,2.794,1
5ecc3b8a119a5e800ca47d80,20,female,0,2,89,Ambigous_right,1,90,1,20,right,right,right,20,-19,1,0.114,17,712,1344,1.344,2.794,0
5ecc3b8a119a5e800ca47d80,20,female,0,2,91,Ambigous_right,1,90,1,20,right,right,right,20,-19,1,0.138,17,712,1344,1.344,2.794,0
5ecc3b8a119a5e800ca47d80,20,female,0,2,93,Ambigous_right,1,90,1,20,right,right,right,20,-19,1,0.1,17,712,1344,1.344,2.794,0
5ecc3b8a119a5e800ca47d80,20,female,0,2,95,Ambigous_right,1,90,1,20,right,right,right,20,-19,1,0.206,17,712,1344,1.344,2.794,0
5ecd6addd559270c48385571,20,female,1,1,2,Ambigous_right,2,10,0,0,right,right,right,20,1,1,1.41,10,671,1465,1.465,2.915,0
5ecd6addd559270c48385571,20,female,1,1,4,Ambigous_right,2,10,0,0,right,right,right,20,1,1,1.197,10,671,1465,1.465,2.915,0
5ecd6addd559270c48385571,20,female,1,1,9,Ambigous_right,2,10,0,0,right,right,right,20,1,1,0.423,10,671,1465,1.465,2.915,0
5ecd6addd559270c48385571,20,female,1,1,10,Ambigous_right,2,10,0,0,right,right,right,20,1,1,0.474,10,671,1465,1.465,2.915,0
5ecd6addd559270c48385571,20,female,1,1,14,Ambigous_right,2,10,1,180,right,right,right,20,-179,1,0.476,10,671,1465,1.465,2.915,0
5ecd6addd559270c48385571,20,female,1,1,17,Ambigous_right,2,10,0,0,right,right,right,20,1,1,0.191,10,671,1465,1.465,2.915,0
5ecd6addd559270c48385571,20,female,1,1,18,Ambigous_right,2,10,0,0,right,right,right,20,1,1,0.26,10,671,1465,1.465,2.915,0
5ecd6addd559270c48385571,20,female,1,1,20,Ambigous_right,2,10,0,0,right,right,right,20,1,1,0.2,10,671,1465,1.465,2.915,0
5ecd6addd559270c48385571,20,female,1,1,21,Ambigous_right,2,10,1,180,right,right,right,20,-179,1,0.233,10,671,1465,1.465,2.915,0
5ecd6addd559270c48385571,20,female,1,1,22,Ambigous_right,2,10,0,0,right,right,right,20,1,1,0.27,10,671,1465,1.465,2.915,0
5ecd6addd559270c48385571,20,female,1,1,23,Ambigous_right,2,10,0,0,right,right,right,20,1,1,0.4920000000000001,10,671,1465,1.465,2.915,0
5ecd6addd559270c48385571,20,female,1,1,24,Ambigous_right,2,10,1,180,right,right,right,20,-179,1,0.233,10,671,1465,1.465,2.915,0
5ecd6addd559270c48385571,20,female,1,1,40,Ambigous_right,2,10,0,0,right,right,right,20,1,1,0.298,10,671,1465,1.465,2.915,0
5ecd6addd559270c48385571,20,female,1,1,47,Ambigous_right,2,10,0,0,right,right,right,20,1,1,0.244,10,671,1465,1.465,2.915,0
5ecd6addd559270c48385571,20,female,1,1,53,Ambigous_right,2,10,0,0,right,right,right,20,1,1,0.166,10,671,1465,1.465,2.915,0
5ecd6addd559270c48385571,20,female,1,1,57,Ambigous_right,2,10,0,0,right,right,right,20,1,1,0.305,10,671,1465,1.465,2.915,0
5ecd6addd559270c48385571,20,female,1,1,60,Ambigous_right,2,10,0,0,right,right,right,20,1,1,0.226,10,671,1465,1.465,2.915,0
5ecd6addd559270c48385571,20,female,1,1,65,Ambigous_right,2,10,0,0,right,right,right,20,1,1,0.3720000000000001,10,671,1465,1.465,2.915,0
5ecd6addd559270c48385571,20,female,1,1,68,Ambigous_right,2,10,0,0,right,right,right,20,1,1,1.262,10,671,1465,1.465,2.915,0
5ecd6addd559270c48385571,20,female,1,1,72,Ambigous_right,2,10,0,0,right,right,right,20,1,1,0.235,10,671,1465,1.465,2.915,0
5ecd6addd559270c48385571,20,female,1,1,82,Ambigous_right,2,10,0,0,right,right,right,20,1,1,0.6609999999999999,10,671,1465,1.465,2.915,0
5ecd6addd559270c48385571,20,female,1,1,83,Ambigous_right,2,10,0,0,right,right,right,20,1,1,0.223,10,671,1465,1.465,2.915,0
5ecd6addd559270c48385571,20,female,1,1,85,Ambigous_right,2,10,0,0,right,right,left,1,20,0,0.398,10,671,1465,1.465,2.915,1
5ecd6addd559270c48385571,20,female,1,1,89,Ambigous_right,2,10,0,0,right,right,right,20,1,1,0.191,10,671,1465,1.465,2.915,0
5ecd6addd559270c48385571,20,female,1,1,93,Ambigous_right,2,10,0,0,right,right,right,20,1,1,0.261,10,671,1465,1.465,2.915,0
5ecd6addd559270c48385571,20,female,1,2,1,Ambigous_right,2,10,0,0,right,right,right,20,1,1,0.241,7,794,1465,1.465,2.915,0
5ecd6addd559270c48385571,20,female,1,2,9,Ambigous_right,2,10,0,0,right,right,right,20,1,1,0.175,7,794,1465,1.465,2.915,0
5ecd6addd559270c48385571,20,female,1,2,13,Ambigous_right,2,10,0,0,right,right,right,20,1,1,0.17600000000000002,7,794,1465,1.465,2.915,0
5ecd6addd559270c48385571,20,female,1,2,15,Ambigous_right,2,10,0,0,right,right,right,20,1,1,0.218,7,794,1465,1.465,2.915,0
5ecd6addd559270c48385571,20,female,1,2,16,Ambigous_right,2,10,0,0,right,right,right,20,1,1,0.263,7,794,1465,1.465,2.915,0
5ecd6addd559270c48385571,20,female,1,2,29,Ambigous_right,2,10,0,0,right,right,right,20,1,1,0.16,7,794,1465,1.465,2.915,0
5ecd6addd559270c48385571,20,female,1,2,30,Ambigous_right,2,10,0,0,right,right,right,20,1,1,0.183,7,794,1465,1.465,2.915,0
5ecd6addd559270c48385571,20,female,1,2,35,Ambigous_right,2,10,0,0,right,right,right,20,1,1,0.44,7,794,1465,1.465,2.915,0
5ecd6addd559270c48385571,20,female,1,2,40,Ambigous_right,2,10,0,0,right,right,right,20,1,1,0.7979999999999999,7,794,1465,1.465,2.915,0
5ecd6addd559270c48385571,20,female,1,2,43,Ambigous_right,2,10,0,0,right,right,right,20,1,1,0.249,7,794,1465,1.465,2.915,0
5ecd6addd559270c48385571,20,female,1,2,44,Ambigous_right,2,10,0,0,right,right,right,20,1,1,0.203,7,794,1465,1.465,2.915,0
5ecd6addd559270c48385571,20,female,1,2,46,Ambigous_right,2,10,0,0,right,right,right,20,1,1,0.196,7,794,1465,1.465,2.915,0
5ecd6addd559270c48385571,20,female,1,2,50,Ambigous_right,2,10,0,0,right,right,right,20,1,1,0.188,7,794,1465,1.465,2.915,0
5ecd6addd559270c48385571,20,female,1,2,52,Ambigous_right,2,10,0,0,right,right,right,20,1,1,0.225,7,794,1465,1.465,2.915,0
5ecd6addd559270c48385571,20,female,1,2,56,Ambigous_right,2,10,1,180,right,right,right,20,-179,1,0.171,7,794,1465,1.465,2.915,0
5ecd6addd559270c48385571,20,female,1,2,61,Ambigous_right,2,10,0,0,right,right,right,20,1,1,0.224,7,794,1465,1.465,2.915,0
5ecd6addd559270c48385571,20,female,1,2,62,Ambigous_right,2,10,0,0,right,right,right,20,1,1,0.277,7,794,1465,1.465,2.915,0
5ecd6addd559270c48385571,20,female,1,2,66,Ambigous_right,2,10,0,0,right,right,right,20,1,1,0.17,7,794,1465,1.465,2.915,0
5ecd6addd559270c48385571,20,female,1,2,69,Ambigous_right,2,10,0,0,right,right,right,20,1,1,0.23,7,794,1465,1.465,2.915,0
5ecd6addd559270c48385571,20,female,1,2,75,Ambigous_right,2,10,0,0,right,right,right,20,1,1,0.22,7,794,1465,1.465,2.915,0
5ecd6addd559270c48385571,20,female,1,2,80,Ambigous_right,2,10,1,180,right,right,right,20,-179,1,0.212,7,794,1465,1.465,2.915,0
5ecd6addd559270c48385571,20,female,1,2,87,Ambigous_right,2,10,0,0,right,right,right,20,1,1,0.149,7,794,1465,1.465,2.915,0
5ecd6addd559270c48385571,20,female,1,2,96,Ambigous_right,2,10,0,0,right,right,left,1,20,0,0.179,7,794,1465,1.465,2.915,1
5ecd6addd559270c48385571,20,female,1,2,99,Ambigous_right,2,10,0,0,right,right,right,20,1,1,0.221,7,794,1465,1.465,2.915,0
5ecd6addd559270c48385571,20,female,1,2,100,Ambigous_right,2,10,0,0,right,right,right,20,1,1,0.187,7,794,1465,1.465,2.915,0
