user_id,age,gender,attention,block_number,trial_number,trial_type,conditions,p_inspection,inspection,fine_size,profitable_side,true_side,choice,trial_payoff,alternative_payoff,choice_correct,rt_choice,block_errors,block_payoff,final_payoff,bonus,final_payment,error,b1_cheating,b2_cheating,b1_sum,b2_sum
56100d727ffc8a0005811338,43,female,1,1,5,Ambigous_right,3,0,0,0,left,right,right,1,2,1,0.345,6,141,277,0.27699999999999997,1.727,0,0,0,2,0
56100d727ffc8a0005811338,43,female,1,1,11,Ambigous_right,3,0,0,0,left,right,right,1,2,1,0.40700000000000003,6,141,277,0.27699999999999997,1.727,0,0,0,2,0
56100d727ffc8a0005811338,43,female,1,1,13,Ambigous_right,3,0,0,0,left,right,right,1,2,1,0.294,6,141,277,0.27699999999999997,1.727,0,0,0,2,0
56100d727ffc8a0005811338,43,female,1,1,14,Ambigous_right,3,0,0,0,left,right,right,1,2,1,0.461,6,141,277,0.27699999999999997,1.727,0,0,0,2,0
56100d727ffc8a0005811338,43,female,1,1,17,Ambigous_right,3,0,0,0,left,right,left,2,1,0,0.235,6,141,277,0.27699999999999997,1.727,1,1,0,2,0
56100d727ffc8a0005811338,43,female,1,1,19,Ambigous_right,3,0,0,0,left,right,right,1,2,1,0.31,6,141,277,0.27699999999999997,1.727,0,0,0,2,0
56100d727ffc8a0005811338,43,female,1,1,20,Ambigous_right,3,0,0,0,left,right,right,1,2,1,0.491,6,141,277,0.27699999999999997,1.727,0,0,0,2,0
56100d727ffc8a0005811338,43,female,1,1,23,Ambigous_right,3,0,0,0,left,right,right,1,2,1,0.22399999999999998,6,141,277,0.27699999999999997,1.727,0,0,0,2,0
56100d727ffc8a0005811338,43,female,1,1,24,Ambigous_right,3,0,0,0,left,right,right,1,2,1,0.18899999999999997,6,141,277,0.27699999999999997,1.727,0,0,0,2,0
56100d727ffc8a0005811338,43,female,1,1,26,Ambigous_right,3,0,0,0,left,right,right,1,2,1,0.275,6,141,277,0.27699999999999997,1.727,0,0,0,2,0
56100d727ffc8a0005811338,43,female,1,1,29,Ambigous_right,3,0,0,0,left,right,right,1,2,1,0.534,6,141,277,0.27699999999999997,1.727,0,0,0,2,0
56100d727ffc8a0005811338,43,female,1,1,45,Ambigous_right,3,0,0,0,left,right,right,1,2,1,0.26,6,141,277,0.27699999999999997,1.727,0,0,0,2,0
56100d727ffc8a0005811338,43,female,1,1,47,Ambigous_right,3,0,0,0,left,right,right,1,2,1,0.214,6,141,277,0.27699999999999997,1.727,0,0,0,2,0
56100d727ffc8a0005811338,43,female,1,1,49,Ambigous_right,3,0,0,0,left,right,right,1,2,1,0.23600000000000002,6,141,277,0.27699999999999997,1.727,0,0,0,2,0
56100d727ffc8a0005811338,43,female,1,1,64,Ambigous_right,3,0,0,0,left,right,right,1,2,1,0.21,6,141,277,0.27699999999999997,1.727,0,0,0,2,0
56100d727ffc8a0005811338,43,female,1,1,65,Ambigous_right,3,0,0,0,left,right,right,1,2,1,0.545,6,141,277,0.27699999999999997,1.727,0,0,0,2,0
56100d727ffc8a0005811338,43,female,1,1,68,Ambigous_right,3,0,0,0,left,right,right,1,2,1,0.622,6,141,277,0.27699999999999997,1.727,0,0,0,2,0
56100d727ffc8a0005811338,43,female,1,1,72,Ambigous_right,3,0,0,0,left,right,right,1,2,1,0.203,6,141,277,0.27699999999999997,1.727,0,0,0,2,0
56100d727ffc8a0005811338,43,female,1,1,75,Ambigous_right,3,0,0,0,left,right,right,1,2,1,0.209,6,141,277,0.27699999999999997,1.727,0,0,0,2,0
56100d727ffc8a0005811338,43,female,1,1,76,Ambigous_right,3,0,0,0,left,right,right,1,2,1,0.782,6,141,277,0.27699999999999997,1.727,0,0,0,2,0
56100d727ffc8a0005811338,43,female,1,1,81,Ambigous_right,3,0,0,0,left,right,right,1,2,1,0.7240000000000001,6,141,277,0.27699999999999997,1.727,0,0,0,2,0
56100d727ffc8a0005811338,43,female,1,1,82,Ambigous_right,3,0,0,0,left,right,left,2,1,0,0.596,6,141,277,0.27699999999999997,1.727,1,1,0,2,0
56100d727ffc8a0005811338,43,female,1,1,84,Ambigous_right,3,0,0,0,left,right,right,1,2,1,0.436,6,141,277,0.27699999999999997,1.727,0,0,0,2,0
56100d727ffc8a0005811338,43,female,1,1,96,Ambigous_right,3,0,0,0,left,right,right,1,2,1,0.12300000000000001,6,141,277,0.27699999999999997,1.727,0,0,0,2,0
56100d727ffc8a0005811338,43,female,1,1,98,Ambigous_right,3,0,0,0,left,right,right,1,2,1,0.156,6,141,277,0.27699999999999997,1.727,0,0,0,2,0
56100d727ffc8a0005811338,43,female,1,2,6,Ambigous_right,3,0,0,0,left,right,right,1,2,1,0.11199999999999999,7,136,277,0.27699999999999997,1.727,0,0,0,0,1
56100d727ffc8a0005811338,43,female,1,2,11,Ambigous_right,3,0,0,0,left,right,right,1,2,1,0.13,7,136,277,0.27699999999999997,1.727,0,0,0,0,1
56100d727ffc8a0005811338,43,female,1,2,13,Ambigous_right,3,0,0,0,left,right,right,1,2,1,0.31,7,136,277,0.27699999999999997,1.727,0,0,0,0,1
56100d727ffc8a0005811338,43,female,1,2,14,Ambigous_right,3,0,0,0,left,right,right,1,2,1,0.175,7,136,277,0.27699999999999997,1.727,0,0,0,0,1
56100d727ffc8a0005811338,43,female,1,2,23,Ambigous_right,3,0,0,0,left,right,right,1,2,1,0.19,7,136,277,0.27699999999999997,1.727,0,0,0,0,1
56100d727ffc8a0005811338,43,female,1,2,28,Ambigous_right,3,0,0,0,left,right,right,1,2,1,0.124,7,136,277,0.27699999999999997,1.727,0,0,0,0,1
56100d727ffc8a0005811338,43,female,1,2,29,Ambigous_right,3,0,0,0,left,right,right,1,2,1,0.22399999999999998,7,136,277,0.27699999999999997,1.727,0,0,0,0,1
56100d727ffc8a0005811338,43,female,1,2,32,Ambigous_right,3,0,0,0,left,right,right,1,2,1,0.166,7,136,277,0.27699999999999997,1.727,0,0,0,0,1
56100d727ffc8a0005811338,43,female,1,2,37,Ambigous_right,3,0,0,0,left,right,right,1,2,1,0.168,7,136,277,0.27699999999999997,1.727,0,0,0,0,1
56100d727ffc8a0005811338,43,female,1,2,44,Ambigous_right,3,0,0,0,left,right,left,2,1,0,0.21100000000000002,7,136,277,0.27699999999999997,1.727,1,0,1,0,1
56100d727ffc8a0005811338,43,female,1,2,45,Ambigous_right,3,0,0,0,left,right,right,1,2,1,0.15,7,136,277,0.27699999999999997,1.727,0,0,0,0,1
56100d727ffc8a0005811338,43,female,1,2,46,Ambigous_right,3,0,0,0,left,right,right,1,2,1,0.205,7,136,277,0.27699999999999997,1.727,0,0,0,0,1
56100d727ffc8a0005811338,43,female,1,2,50,Ambigous_right,3,0,0,0,left,right,right,1,2,1,0.174,7,136,277,0.27699999999999997,1.727,0,0,0,0,1
56100d727ffc8a0005811338,43,female,1,2,51,Ambigous_right,3,0,0,0,left,right,right,1,2,1,0.318,7,136,277,0.27699999999999997,1.727,0,0,0,0,1
56100d727ffc8a0005811338,43,female,1,2,60,Ambigous_right,3,0,0,0,left,right,right,1,2,1,0.17,7,136,277,0.27699999999999997,1.727,0,0,0,0,1
56100d727ffc8a0005811338,43,female,1,2,65,Ambigous_right,3,0,0,0,left,right,right,1,2,1,0.248,7,136,277,0.27699999999999997,1.727,0,0,0,0,1
56100d727ffc8a0005811338,43,female,1,2,70,Ambigous_right,3,0,0,0,left,right,right,1,2,1,0.20800000000000002,7,136,277,0.27699999999999997,1.727,0,0,0,0,1
56100d727ffc8a0005811338,43,female,1,2,73,Ambigous_right,3,0,0,0,left,right,right,1,2,1,0.185,7,136,277,0.27699999999999997,1.727,0,0,0,0,1
56100d727ffc8a0005811338,43,female,1,2,75,Ambigous_right,3,0,0,0,left,right,right,1,2,1,0.132,7,136,277,0.27699999999999997,1.727,0,0,0,0,1
56100d727ffc8a0005811338,43,female,1,2,82,Ambigous_right,3,0,0,0,left,right,right,1,2,1,0.955,7,136,277,0.27699999999999997,1.727,0,0,0,0,1
56100d727ffc8a0005811338,43,female,1,2,86,Ambigous_right,3,0,0,0,left,right,right,1,2,1,0.14300000000000002,7,136,277,0.27699999999999997,1.727,0,0,0,0,1
56100d727ffc8a0005811338,43,female,1,2,87,Ambigous_right,3,0,0,0,left,right,right,1,2,1,1.214,7,136,277,0.27699999999999997,1.727,0,0,0,0,1
56100d727ffc8a0005811338,43,female,1,2,91,Ambigous_right,3,0,0,0,left,right,right,1,2,1,0.3,7,136,277,0.27699999999999997,1.727,0,0,0,0,1
56100d727ffc8a0005811338,43,female,1,2,93,Ambigous_right,3,0,0,0,left,right,right,1,2,1,0.109,7,136,277,0.27699999999999997,1.727,0,0,0,0,1
56100d727ffc8a0005811338,43,female,1,2,95,Ambigous_right,3,0,0,0,left,right,right,1,2,1,0.193,7,136,277,0.27699999999999997,1.727,0,0,0,0,1
578f9f52eeaf6d00018d4f20,30,male,1,1,5,Ambigous_right,3,0,0,0,left,right,left,2,1,0,0.09699999999999999,59,200,398,0.39799999999999996,1.848,1,1,0,25,0
578f9f52eeaf6d00018d4f20,30,male,1,1,7,Ambigous_right,3,0,0,0,left,right,left,2,1,0,0.095,59,200,398,0.39799999999999996,1.848,1,1,0,25,0
578f9f52eeaf6d00018d4f20,30,male,1,1,14,Ambigous_right,3,0,0,0,left,right,left,2,1,0,0.069,59,200,398,0.39799999999999996,1.848,1,1,0,25,0
578f9f52eeaf6d00018d4f20,30,male,1,1,16,Ambigous_right,3,0,0,0,left,right,left,2,1,0,0.107,59,200,398,0.39799999999999996,1.848,1,1,0,25,0
578f9f52eeaf6d00018d4f20,30,male,1,1,20,Ambigous_right,3,0,0,0,left,right,left,2,1,0,0.022000000000000002,59,200,398,0.39799999999999996,1.848,1,1,0,25,0
578f9f52eeaf6d00018d4f20,30,male,1,1,21,Ambigous_right,3,0,0,0,left,right,left,2,1,0,0.027000000000000003,59,200,398,0.39799999999999996,1.848,1,1,0,25,0
578f9f52eeaf6d00018d4f20,30,male,1,1,22,Ambigous_right,3,0,0,0,left,right,left,2,1,0,0.05,59,200,398,0.39799999999999996,1.848,1,1,0,25,0
578f9f52eeaf6d00018d4f20,30,male,1,1,27,Ambigous_right,3,0,0,0,left,right,left,2,1,0,0.036000000000000004,59,200,398,0.39799999999999996,1.848,1,1,0,25,0
578f9f52eeaf6d00018d4f20,30,male,1,1,28,Ambigous_right,3,0,0,0,left,right,left,2,1,0,0.022000000000000002,59,200,398,0.39799999999999996,1.848,1,1,0,25,0
578f9f52eeaf6d00018d4f20,30,male,1,1,29,Ambigous_right,3,0,0,0,left,right,left,2,1,0,0.015,59,200,398,0.39799999999999996,1.848,1,1,0,25,0
578f9f52eeaf6d00018d4f20,30,male,1,1,34,Ambigous_right,3,0,0,0,left,right,left,2,1,0,0.021,59,200,398,0.39799999999999996,1.848,1,1,0,25,0
578f9f52eeaf6d00018d4f20,30,male,1,1,39,Ambigous_right,3,0,0,0,left,right,left,2,1,0,0.017,59,200,398,0.39799999999999996,1.848,1,1,0,25,0
578f9f52eeaf6d00018d4f20,30,male,1,1,43,Ambigous_right,3,0,0,0,left,right,left,2,1,0,0.012,59,200,398,0.39799999999999996,1.848,1,1,0,25,0
578f9f52eeaf6d00018d4f20,30,male,1,1,44,Ambigous_right,3,0,0,0,left,right,left,2,1,0,0.091,59,200,398,0.39799999999999996,1.848,1,1,0,25,0
578f9f52eeaf6d00018d4f20,30,male,1,1,46,Ambigous_right,3,0,0,0,left,right,left,2,1,0,0.055,59,200,398,0.39799999999999996,1.848,1,1,0,25,0
578f9f52eeaf6d00018d4f20,30,male,1,1,47,Ambigous_right,3,0,0,0,left,right,left,2,1,0,0.084,59,200,398,0.39799999999999996,1.848,1,1,0,25,0
578f9f52eeaf6d00018d4f20,30,male,1,1,50,Ambigous_right,3,0,0,0,left,right,left,2,1,0,0.085,59,200,398,0.39799999999999996,1.848,1,1,0,25,0
578f9f52eeaf6d00018d4f20,30,male,1,1,54,Ambigous_right,3,0,0,0,left,right,left,2,1,0,0.006,59,200,398,0.39799999999999996,1.848,1,1,0,25,0
578f9f52eeaf6d00018d4f20,30,male,1,1,66,Ambigous_right,3,0,0,0,left,right,left,2,1,0,0.14400000000000002,59,200,398,0.39799999999999996,1.848,1,1,0,25,0
578f9f52eeaf6d00018d4f20,30,male,1,1,78,Ambigous_right,3,0,0,0,left,right,left,2,1,0,0.017,59,200,398,0.39799999999999996,1.848,1,1,0,25,0
578f9f52eeaf6d00018d4f20,30,male,1,1,79,Ambigous_right,3,0,0,0,left,right,left,2,1,0,0.095,59,200,398,0.39799999999999996,1.848,1,1,0,25,0
578f9f52eeaf6d00018d4f20,30,male,1,1,89,Ambigous_right,3,0,0,0,left,right,left,2,1,0,3.1,59,200,398,0.39799999999999996,1.848,1,1,0,25,0
578f9f52eeaf6d00018d4f20,30,male,1,1,91,Ambigous_right,3,0,0,0,left,right,left,2,1,0,0.158,59,200,398,0.39799999999999996,1.848,1,1,0,25,0
578f9f52eeaf6d00018d4f20,30,male,1,1,95,Ambigous_right,3,0,0,0,left,right,left,2,1,0,0.051,59,200,398,0.39799999999999996,1.848,1,1,0,25,0
578f9f52eeaf6d00018d4f20,30,male,1,1,99,Ambigous_right,3,0,0,0,left,right,left,2,1,0,0.068,59,200,398,0.39799999999999996,1.848,1,1,0,25,0
578f9f52eeaf6d00018d4f20,30,male,1,2,2,Ambigous_right,3,0,0,0,left,right,left,2,1,0,0.11699999999999999,59,198,398,0.39799999999999996,1.848,1,0,1,0,25
578f9f52eeaf6d00018d4f20,30,male,1,2,3,Ambigous_right,3,0,0,0,left,right,left,2,1,0,0.037000000000000005,59,198,398,0.39799999999999996,1.848,1,0,1,0,25
578f9f52eeaf6d00018d4f20,30,male,1,2,8,Ambigous_right,3,0,0,0,left,right,left,2,1,0,0.06,59,198,398,0.39799999999999996,1.848,1,0,1,0,25
578f9f52eeaf6d00018d4f20,30,male,1,2,11,Ambigous_right,3,0,0,0,left,right,left,2,1,0,0.038,59,198,398,0.39799999999999996,1.848,1,0,1,0,25
578f9f52eeaf6d00018d4f20,30,male,1,2,13,Ambigous_right,3,0,0,0,left,right,left,2,1,0,0.085,59,198,398,0.39799999999999996,1.848,1,0,1,0,25
578f9f52eeaf6d00018d4f20,30,male,1,2,20,Ambigous_right,3,0,0,0,left,right,left,2,1,0,0.064,59,198,398,0.39799999999999996,1.848,1,0,1,0,25
578f9f52eeaf6d00018d4f20,30,male,1,2,21,Ambigous_right,3,0,0,0,left,right,left,2,1,0,0.052000000000000005,59,198,398,0.39799999999999996,1.848,1,0,1,0,25
578f9f52eeaf6d00018d4f20,30,male,1,2,23,Ambigous_right,3,0,0,0,left,right,left,2,1,0,0.031,59,198,398,0.39799999999999996,1.848,1,0,1,0,25
578f9f52eeaf6d00018d4f20,30,male,1,2,24,Ambigous_right,3,0,0,0,left,right,left,2,1,0,0.027999999999999997,59,198,398,0.39799999999999996,1.848,1,0,1,0,25
578f9f52eeaf6d00018d4f20,30,male,1,2,30,Ambigous_right,3,0,0,0,left,right,left,2,1,0,0.026000000000000002,59,198,398,0.39799999999999996,1.848,1,0,1,0,25
578f9f52eeaf6d00018d4f20,30,male,1,2,44,Ambigous_right,3,0,0,0,left,right,left,2,1,0,0.04,59,198,398,0.39799999999999996,1.848,1,0,1,0,25
578f9f52eeaf6d00018d4f20,30,male,1,2,50,Ambigous_right,3,0,0,0,left,right,left,2,1,0,1.6280000000000001,59,198,398,0.39799999999999996,1.848,1,0,1,0,25
578f9f52eeaf6d00018d4f20,30,male,1,2,55,Ambigous_right,3,0,0,0,left,right,left,2,1,0,0.04,59,198,398,0.39799999999999996,1.848,1,0,1,0,25
578f9f52eeaf6d00018d4f20,30,male,1,2,56,Ambigous_right,3,0,0,0,left,right,left,2,1,0,0.047,59,198,398,0.39799999999999996,1.848,1,0,1,0,25
578f9f52eeaf6d00018d4f20,30,male,1,2,63,Ambigous_right,3,0,0,0,left,right,left,2,1,0,0.042,59,198,398,0.39799999999999996,1.848,1,0,1,0,25
578f9f52eeaf6d00018d4f20,30,male,1,2,64,Ambigous_right,3,0,0,0,left,right,left,2,1,0,0.08900000000000001,59,198,398,0.39799999999999996,1.848,1,0,1,0,25
578f9f52eeaf6d00018d4f20,30,male,1,2,65,Ambigous_right,3,0,0,0,left,right,left,2,1,0,0.027000000000000003,59,198,398,0.39799999999999996,1.848,1,0,1,0,25
578f9f52eeaf6d00018d4f20,30,male,1,2,66,Ambigous_right,3,0,0,0,left,right,left,2,1,0,0.065,59,198,398,0.39799999999999996,1.848,1,0,1,0,25
578f9f52eeaf6d00018d4f20,30,male,1,2,72,Ambigous_right,3,0,0,0,left,right,left,2,1,0,0.013000000000000001,59,198,398,0.39799999999999996,1.848,1,0,1,0,25
578f9f52eeaf6d00018d4f20,30,male,1,2,76,Ambigous_right,3,0,0,0,left,right,left,2,1,0,0.054000000000000006,59,198,398,0.39799999999999996,1.848,1,0,1,0,25
578f9f52eeaf6d00018d4f20,30,male,1,2,77,Ambigous_right,3,0,0,0,left,right,left,2,1,0,0.042,59,198,398,0.39799999999999996,1.848,1,0,1,0,25
578f9f52eeaf6d00018d4f20,30,male,1,2,91,Ambigous_right,3,0,0,0,left,right,left,2,1,0,0.084,59,198,398,0.39799999999999996,1.848,1,0,1,0,25
578f9f52eeaf6d00018d4f20,30,male,1,2,92,Ambigous_right,3,0,0,0,left,right,left,2,1,0,0.006999999999999999,59,198,398,0.39799999999999996,1.848,1,0,1,0,25
578f9f52eeaf6d00018d4f20,30,male,1,2,93,Ambigous_right,3,0,0,0,left,right,left,2,1,0,0.098,59,198,398,0.39799999999999996,1.848,1,0,1,0,25
578f9f52eeaf6d00018d4f20,30,male,1,2,98,Ambigous_right,3,0,0,0,left,right,left,2,1,0,0.063,59,198,398,0.39799999999999996,1.848,1,0,1,0,25
595bf7acc76e6700014d33fc,52,female,1,1,7,Ambigous_right,2,10,0,0,left,right,right,1,20,1,0.071,9,642,1170,1.17,2.62,0,0,0,3,0
595bf7acc76e6700014d33fc,52,female,1,1,8,Ambigous_right,2,10,1,180,left,right,right,1,-160,1,0.053,9,642,1170,1.17,2.62,0,0,0,3,0
595bf7acc76e6700014d33fc,52,female,1,1,13,Ambigous_right,2,10,0,0,left,right,right,1,20,1,0.06,9,642,1170,1.17,2.62,0,0,0,3,0
595bf7acc76e6700014d33fc,52,female,1,1,17,Ambigous_right,2,10,0,0,left,right,right,1,20,1,0.053,9,642,1170,1.17,2.62,0,0,0,3,0
595bf7acc76e6700014d33fc,52,female,1,1,18,Ambigous_right,2,10,0,0,left,right,right,1,20,1,0.055999999999999994,9,642,1170,1.17,2.62,0,0,0,3,0
595bf7acc76e6700014d33fc,52,female,1,1,22,Ambigous_right,2,10,0,0,left,right,left,20,1,0,0.053,9,642,1170,1.17,2.62,1,1,0,3,0
595bf7acc76e6700014d33fc,52,female,1,1,28,Ambigous_right,2,10,0,0,left,right,right,1,20,1,0.04,9,642,1170,1.17,2.62,0,0,0,3,0
595bf7acc76e6700014d33fc,52,female,1,1,40,Ambigous_right,2,10,0,0,left,right,right,1,20,1,0.043,9,642,1170,1.17,2.62,0,0,0,3,0
595bf7acc76e6700014d33fc,52,female,1,1,43,Ambigous_right,2,10,0,0,left,right,right,1,20,1,0.053,9,642,1170,1.17,2.62,0,0,0,3,0
595bf7acc76e6700014d33fc,52,female,1,1,45,Ambigous_right,2,10,0,0,left,right,right,1,20,1,0.040999999999999995,9,642,1170,1.17,2.62,0,0,0,3,0
595bf7acc76e6700014d33fc,52,female,1,1,54,Ambigous_right,2,10,1,180,left,right,left,-160,-179,0,0.044000000000000004,9,642,1170,1.17,2.62,1,1,0,3,0
595bf7acc76e6700014d33fc,52,female,1,1,60,Ambigous_right,2,10,0,0,left,right,right,1,20,1,0.049,9,642,1170,1.17,2.62,0,0,0,3,0
595bf7acc76e6700014d33fc,52,female,1,1,65,Ambigous_right,2,10,0,0,left,right,right,1,20,1,0.054000000000000006,9,642,1170,1.17,2.62,0,0,0,3,0
595bf7acc76e6700014d33fc,52,female,1,1,66,Ambigous_right,2,10,0,0,left,right,right,1,20,1,0.038,9,642,1170,1.17,2.62,0,0,0,3,0
595bf7acc76e6700014d33fc,52,female,1,1,67,Ambigous_right,2,10,0,0,left,right,left,20,1,0,0.052000000000000005,9,642,1170,1.17,2.62,1,1,0,3,0
595bf7acc76e6700014d33fc,52,female,1,1,69,Ambigous_right,2,10,0,0,left,right,right,1,20,1,0.046,9,642,1170,1.17,2.62,0,0,0,3,0
595bf7acc76e6700014d33fc,52,female,1,1,73,Ambigous_right,2,10,1,180,left,right,right,1,-160,1,0.043,9,642,1170,1.17,2.62,0,0,0,3,0
595bf7acc76e6700014d33fc,52,female,1,1,80,Ambigous_right,2,10,0,0,left,right,right,1,20,1,0.036000000000000004,9,642,1170,1.17,2.62,0,0,0,3,0
595bf7acc76e6700014d33fc,52,female,1,1,82,Ambigous_right,2,10,0,0,left,right,right,1,20,1,0.032,9,642,1170,1.17,2.62,0,0,0,3,0
595bf7acc76e6700014d33fc,52,female,1,1,85,Ambigous_right,2,10,0,0,left,right,right,1,20,1,0.039,9,642,1170,1.17,2.62,0,0,0,3,0
595bf7acc76e6700014d33fc,52,female,1,1,91,Ambigous_right,2,10,0,0,left,right,right,1,20,1,0.031,9,642,1170,1.17,2.62,0,0,0,3,0
595bf7acc76e6700014d33fc,52,female,1,1,92,Ambigous_right,2,10,1,180,left,right,right,1,-160,1,0.044000000000000004,9,642,1170,1.17,2.62,0,0,0,3,0
595bf7acc76e6700014d33fc,52,female,1,1,93,Ambigous_right,2,10,0,0,left,right,right,1,20,1,0.034,9,642,1170,1.17,2.62,0,0,0,3,0
595bf7acc76e6700014d33fc,52,female,1,1,97,Ambigous_right,2,10,0,0,left,right,right,1,20,1,0.031,9,642,1170,1.17,2.62,0,0,0,3,0
595bf7acc76e6700014d33fc,52,female,1,1,99,Ambigous_right,2,10,0,0,left,right,right,1,20,1,0.027999999999999997,9,642,1170,1.17,2.62,0,0,0,3,0
595bf7acc76e6700014d33fc,52,female,1,2,1,Ambigous_right,2,10,0,0,left,right,right,1,20,1,0.026000000000000002,13,528,1170,1.17,2.62,0,0,0,0,2
595bf7acc76e6700014d33fc,52,female,1,2,3,Ambigous_right,2,10,0,0,left,right,right,1,20,1,0.044000000000000004,13,528,1170,1.17,2.62,0,0,0,0,2
595bf7acc76e6700014d33fc,52,female,1,2,16,Ambigous_right,2,10,0,0,left,right,right,1,20,1,0.037000000000000005,13,528,1170,1.17,2.62,0,0,0,0,2
595bf7acc76e6700014d33fc,52,female,1,2,26,Ambigous_right,2,10,0,0,left,right,right,1,20,1,0.039,13,528,1170,1.17,2.62,0,0,0,0,2
595bf7acc76e6700014d33fc,52,female,1,2,29,Ambigous_right,2,10,0,0,left,right,right,1,20,1,0.026000000000000002,13,528,1170,1.17,2.62,0,0,0,0,2
595bf7acc76e6700014d33fc,52,female,1,2,33,Ambigous_right,2,10,0,0,left,right,right,1,20,1,0.028999999999999998,13,528,1170,1.17,2.62,0,0,0,0,2
595bf7acc76e6700014d33fc,52,female,1,2,37,Ambigous_right,2,10,0,0,left,right,right,1,20,1,0.031,13,528,1170,1.17,2.62,0,0,0,0,2
595bf7acc76e6700014d33fc,52,female,1,2,39,Ambigous_right,2,10,0,0,left,right,right,1,20,1,0.067,13,528,1170,1.17,2.62,0,0,0,0,2
595bf7acc76e6700014d33fc,52,female,1,2,40,Ambigous_right,2,10,0,0,left,right,right,1,20,1,0.047,13,528,1170,1.17,2.62,0,0,0,0,2
595bf7acc76e6700014d33fc,52,female,1,2,41,Ambigous_right,2,10,0,0,left,right,right,1,20,1,0.028999999999999998,13,528,1170,1.17,2.62,0,0,0,0,2
595bf7acc76e6700014d33fc,52,female,1,2,47,Ambigous_right,2,10,1,180,left,right,right,1,-160,1,0.027999999999999997,13,528,1170,1.17,2.62,0,0,0,0,2
595bf7acc76e6700014d33fc,52,female,1,2,51,Ambigous_right,2,10,0,0,left,right,right,1,20,1,0.039,13,528,1170,1.17,2.62,0,0,0,0,2
595bf7acc76e6700014d33fc,52,female,1,2,53,Ambigous_right,2,10,0,0,left,right,right,1,20,1,0.033,13,528,1170,1.17,2.62,0,0,0,0,2
595bf7acc76e6700014d33fc,52,female,1,2,59,Ambigous_right,2,10,0,0,left,right,right,1,20,1,0.047,13,528,1170,1.17,2.62,0,0,0,0,2
595bf7acc76e6700014d33fc,52,female,1,2,60,Ambigous_right,2,10,0,0,left,right,right,1,20,1,0.065,13,528,1170,1.17,2.62,0,0,0,0,2
595bf7acc76e6700014d33fc,52,female,1,2,65,Ambigous_right,2,10,0,0,left,right,right,1,20,1,0.034,13,528,1170,1.17,2.62,0,0,0,0,2
595bf7acc76e6700014d33fc,52,female,1,2,66,Ambigous_right,2,10,0,0,left,right,right,1,20,1,0.037000000000000005,13,528,1170,1.17,2.62,0,0,0,0,2
595bf7acc76e6700014d33fc,52,female,1,2,76,Ambigous_right,2,10,0,0,left,right,right,1,20,1,0.047,13,528,1170,1.17,2.62,0,0,0,0,2
595bf7acc76e6700014d33fc,52,female,1,2,78,Ambigous_right,2,10,1,180,left,right,right,1,-160,1,0.054000000000000006,13,528,1170,1.17,2.62,0,0,0,0,2
595bf7acc76e6700014d33fc,52,female,1,2,79,Ambigous_right,2,10,0,0,left,right,left,20,1,0,0.057999999999999996,13,528,1170,1.17,2.62,1,0,1,0,2
595bf7acc76e6700014d33fc,52,female,1,2,86,Ambigous_right,2,10,0,0,left,right,right,1,20,1,0.026000000000000002,13,528,1170,1.17,2.62,0,0,0,0,2
595bf7acc76e6700014d33fc,52,female,1,2,91,Ambigous_right,2,10,0,0,left,right,right,1,20,1,0.03,13,528,1170,1.17,2.62,0,0,0,0,2
595bf7acc76e6700014d33fc,52,female,1,2,92,Ambigous_right,2,10,0,0,left,right,right,1,20,1,0.04,13,528,1170,1.17,2.62,0,0,0,0,2
595bf7acc76e6700014d33fc,52,female,1,2,93,Ambigous_right,2,10,0,0,left,right,right,1,20,1,0.04,13,528,1170,1.17,2.62,0,0,0,0,2
595bf7acc76e6700014d33fc,52,female,1,2,100,Ambigous_right,2,10,1,180,left,right,left,-160,-179,0,0.08,13,528,1170,1.17,2.62,1,0,1,0,2
59e7276d5de9b000017ed1c1,38,male,0,1,1,Ambigous_left,3,0,0,0,right,left,left,1,2,1,0.99,13,152,325,0.325,1.775,0,0,0,5,0
59e7276d5de9b000017ed1c1,38,male,0,1,2,Ambigous_left,3,0,0,0,right,left,left,1,2,1,0.297,13,152,325,0.325,1.775,0,0,0,5,0
59e7276d5de9b000017ed1c1,38,male,0,1,3,Ambigous_left,3,0,0,0,right,left,right,2,1,0,0.765,13,152,325,0.325,1.775,1,1,0,5,0
59e7276d5de9b000017ed1c1,38,male,0,1,4,Ambigous_left,3,0,0,0,right,left,left,1,2,1,0.35700000000000004,13,152,325,0.325,1.775,0,0,0,5,0
59e7276d5de9b000017ed1c1,38,male,0,1,5,Ambigous_left,3,0,0,0,right,left,left,1,2,1,0.249,13,152,325,0.325,1.775,0,0,0,5,0
59e7276d5de9b000017ed1c1,38,male,0,1,9,Ambigous_left,3,0,0,0,right,left,left,1,2,1,0.723,13,152,325,0.325,1.775,0,0,0,5,0
59e7276d5de9b000017ed1c1,38,male,0,1,10,Ambigous_left,3,0,0,0,right,left,right,2,1,0,1.992,13,152,325,0.325,1.775,1,1,0,5,0
59e7276d5de9b000017ed1c1,38,male,0,1,12,Ambigous_left,3,0,0,0,right,left,right,2,1,0,0.4970000000000001,13,152,325,0.325,1.775,1,1,0,5,0
59e7276d5de9b000017ed1c1,38,male,0,1,20,Ambigous_left,3,0,0,0,right,left,left,1,2,1,0.292,13,152,325,0.325,1.775,0,0,0,5,0
59e7276d5de9b000017ed1c1,38,male,0,1,30,Ambigous_left,3,0,0,0,right,left,left,1,2,1,0.313,13,152,325,0.325,1.775,0,0,0,5,0
59e7276d5de9b000017ed1c1,38,male,0,1,34,Ambigous_left,3,0,0,0,right,left,left,1,2,1,0.39899999999999997,13,152,325,0.325,1.775,0,0,0,5,0
59e7276d5de9b000017ed1c1,38,male,0,1,37,Ambigous_left,3,0,0,0,right,left,left,1,2,1,0.221,13,152,325,0.325,1.775,0,0,0,5,0
59e7276d5de9b000017ed1c1,38,male,0,1,43,Ambigous_left,3,0,0,0,right,left,left,1,2,1,0.318,13,152,325,0.325,1.775,0,0,0,5,0
59e7276d5de9b000017ed1c1,38,male,0,1,48,Ambigous_left,3,0,0,0,right,left,right,2,1,0,0.266,13,152,325,0.325,1.775,1,1,0,5,0
59e7276d5de9b000017ed1c1,38,male,0,1,49,Ambigous_left,3,0,0,0,right,left,left,1,2,1,0.384,13,152,325,0.325,1.775,0,0,0,5,0
59e7276d5de9b000017ed1c1,38,male,0,1,51,Ambigous_left,3,0,0,0,right,left,left,1,2,1,0.616,13,152,325,0.325,1.775,0,0,0,5,0
59e7276d5de9b000017ed1c1,38,male,0,1,53,Ambigous_left,3,0,0,0,right,left,left,1,2,1,0.259,13,152,325,0.325,1.775,0,0,0,5,0
59e7276d5de9b000017ed1c1,38,male,0,1,56,Ambigous_left,3,0,0,0,right,left,left,1,2,1,0.619,13,152,325,0.325,1.775,0,0,0,5,0
59e7276d5de9b000017ed1c1,38,male,0,1,63,Ambigous_left,3,0,0,0,right,left,left,1,2,1,0.231,13,152,325,0.325,1.775,0,0,0,5,0
59e7276d5de9b000017ed1c1,38,male,0,1,64,Ambigous_left,3,0,0,0,right,left,left,1,2,1,0.21899999999999997,13,152,325,0.325,1.775,0,0,0,5,0
59e7276d5de9b000017ed1c1,38,male,0,1,69,Ambigous_left,3,0,0,0,right,left,left,1,2,1,0.237,13,152,325,0.325,1.775,0,0,0,5,0
59e7276d5de9b000017ed1c1,38,male,0,1,72,Ambigous_left,3,0,0,0,right,left,right,2,1,0,0.289,13,152,325,0.325,1.775,1,1,0,5,0
59e7276d5de9b000017ed1c1,38,male,0,1,78,Ambigous_left,3,0,0,0,right,left,left,1,2,1,0.39899999999999997,13,152,325,0.325,1.775,0,0,0,5,0
59e7276d5de9b000017ed1c1,38,male,0,1,80,Ambigous_left,3,0,0,0,right,left,left,1,2,1,0.217,13,152,325,0.325,1.775,0,0,0,5,0
59e7276d5de9b000017ed1c1,38,male,0,1,100,Ambigous_left,3,0,0,0,right,left,left,1,2,1,0.27699999999999997,13,152,325,0.325,1.775,0,0,0,5,0
59e7276d5de9b000017ed1c1,38,male,0,2,1,Ambigous_left,3,0,0,0,right,left,right,2,1,0,0.233,34,173,325,0.325,1.775,1,0,1,0,16
59e7276d5de9b000017ed1c1,38,male,0,2,4,Ambigous_left,3,0,0,0,right,left,right,2,1,0,0.27,34,173,325,0.325,1.775,1,0,1,0,16
59e7276d5de9b000017ed1c1,38,male,0,2,8,Ambigous_left,3,0,0,0,right,left,left,1,2,1,0.322,34,173,325,0.325,1.775,0,0,0,0,16
59e7276d5de9b000017ed1c1,38,male,0,2,10,Ambigous_left,3,0,0,0,right,left,left,1,2,1,0.23399999999999999,34,173,325,0.325,1.775,0,0,0,0,16
59e7276d5de9b000017ed1c1,38,male,0,2,18,Ambigous_left,3,0,0,0,right,left,right,2,1,0,0.325,34,173,325,0.325,1.775,1,0,1,0,16
59e7276d5de9b000017ed1c1,38,male,0,2,21,Ambigous_left,3,0,0,0,right,left,right,2,1,0,0.253,34,173,325,0.325,1.775,1,0,1,0,16
59e7276d5de9b000017ed1c1,38,male,0,2,23,Ambigous_left,3,0,0,0,right,left,right,2,1,0,0.20800000000000002,34,173,325,0.325,1.775,1,0,1,0,16
59e7276d5de9b000017ed1c1,38,male,0,2,28,Ambigous_left,3,0,0,0,right,left,right,2,1,0,0.242,34,173,325,0.325,1.775,1,0,1,0,16
59e7276d5de9b000017ed1c1,38,male,0,2,29,Ambigous_left,3,0,0,0,right,left,right,2,1,0,0.22699999999999998,34,173,325,0.325,1.775,1,0,1,0,16
59e7276d5de9b000017ed1c1,38,male,0,2,33,Ambigous_left,3,0,0,0,right,left,right,2,1,0,0.209,34,173,325,0.325,1.775,1,0,1,0,16
59e7276d5de9b000017ed1c1,38,male,0,2,35,Ambigous_left,3,0,0,0,right,left,right,2,1,0,0.214,34,173,325,0.325,1.775,1,0,1,0,16
59e7276d5de9b000017ed1c1,38,male,0,2,37,Ambigous_left,3,0,0,0,right,left,right,2,1,0,0.228,34,173,325,0.325,1.775,1,0,1,0,16
59e7276d5de9b000017ed1c1,38,male,0,2,39,Ambigous_left,3,0,0,0,right,left,left,1,2,1,0.191,34,173,325,0.325,1.775,0,0,0,0,16
59e7276d5de9b000017ed1c1,38,male,0,2,41,Ambigous_left,3,0,0,0,right,left,left,1,2,1,0.19399999999999998,34,173,325,0.325,1.775,0,0,0,0,16
59e7276d5de9b000017ed1c1,38,male,0,2,46,Ambigous_left,3,0,0,0,right,left,right,2,1,0,0.223,34,173,325,0.325,1.775,1,0,1,0,16
59e7276d5de9b000017ed1c1,38,male,0,2,60,Ambigous_left,3,0,0,0,right,left,right,2,1,0,0.213,34,173,325,0.325,1.775,1,0,1,0,16
59e7276d5de9b000017ed1c1,38,male,0,2,61,Ambigous_left,3,0,0,0,right,left,right,2,1,0,0.188,34,173,325,0.325,1.775,1,0,1,0,16
59e7276d5de9b000017ed1c1,38,male,0,2,65,Ambigous_left,3,0,0,0,right,left,right,2,1,0,0.237,34,173,325,0.325,1.775,1,0,1,0,16
59e7276d5de9b000017ed1c1,38,male,0,2,67,Ambigous_left,3,0,0,0,right,left,left,1,2,1,0.23199999999999998,34,173,325,0.325,1.775,0,0,0,0,16
59e7276d5de9b000017ed1c1,38,male,0,2,72,Ambigous_left,3,0,0,0,right,left,left,1,2,1,0.19899999999999998,34,173,325,0.325,1.775,0,0,0,0,16
59e7276d5de9b000017ed1c1,38,male,0,2,75,Ambigous_left,3,0,0,0,right,left,right,2,1,0,0.133,34,173,325,0.325,1.775,1,0,1,0,16
59e7276d5de9b000017ed1c1,38,male,0,2,78,Ambigous_left,3,0,0,0,right,left,left,1,2,1,0.28600000000000003,34,173,325,0.325,1.775,0,0,0,0,16
59e7276d5de9b000017ed1c1,38,male,0,2,79,Ambigous_left,3,0,0,0,right,left,left,1,2,1,0.245,34,173,325,0.325,1.775,0,0,0,0,16
59e7276d5de9b000017ed1c1,38,male,0,2,87,Ambigous_left,3,0,0,0,right,left,left,1,2,1,0.253,34,173,325,0.325,1.775,0,0,0,0,16
59e7276d5de9b000017ed1c1,38,male,0,2,93,Ambigous_left,3,0,0,0,right,left,right,2,1,0,0.214,34,173,325,0.325,1.775,1,0,1,0,16
5b01842bc573030001c345e0,44,male,1,1,5,Ambigous_left,1,90,1,20,right,left,right,0,-19,0,0.168,19,784,1597,1.597,3.047,1,1,0,13,0
5b01842bc573030001c345e0,44,male,1,1,10,Ambigous_left,1,90,1,20,right,left,right,0,-19,0,0.135,19,784,1597,1.597,3.047,1,1,0,13,0
5b01842bc573030001c345e0,44,male,1,1,11,Ambigous_left,1,90,1,20,right,left,left,1,0,1,0.195,19,784,1597,1.597,3.047,0,0,0,13,0
5b01842bc573030001c345e0,44,male,1,1,13,Ambigous_left,1,90,1,20,right,left,left,1,0,1,0.235,19,784,1597,1.597,3.047,0,0,0,13,0
5b01842bc573030001c345e0,44,male,1,1,30,Ambigous_left,1,90,1,20,right,left,right,0,-19,0,0.243,19,784,1597,1.597,3.047,1,1,0,13,0
5b01842bc573030001c345e0,44,male,1,1,31,Ambigous_left,1,90,1,20,right,left,right,0,-19,0,0.221,19,784,1597,1.597,3.047,1,1,0,13,0
5b01842bc573030001c345e0,44,male,1,1,34,Ambigous_left,1,90,1,20,right,left,right,0,-19,0,0.18899999999999997,19,784,1597,1.597,3.047,1,1,0,13,0
5b01842bc573030001c345e0,44,male,1,1,36,Ambigous_left,1,90,1,20,right,left,right,0,-19,0,0.11,19,784,1597,1.597,3.047,1,1,0,13,0
5b01842bc573030001c345e0,44,male,1,1,38,Ambigous_left,1,90,1,20,right,left,right,0,-19,0,0.151,19,784,1597,1.597,3.047,1,1,0,13,0
5b01842bc573030001c345e0,44,male,1,1,40,Ambigous_left,1,90,1,20,right,left,left,1,0,1,0.145,19,784,1597,1.597,3.047,0,0,0,13,0
5b01842bc573030001c345e0,44,male,1,1,41,Ambigous_left,1,90,1,20,right,left,left,1,0,1,0.225,19,784,1597,1.597,3.047,0,0,0,13,0
5b01842bc573030001c345e0,44,male,1,1,47,Ambigous_left,1,90,1,20,right,left,right,0,-19,0,0.18600000000000005,19,784,1597,1.597,3.047,1,1,0,13,0
5b01842bc573030001c345e0,44,male,1,1,53,Ambigous_left,1,90,1,20,right,left,right,0,-19,0,0.133,19,784,1597,1.597,3.047,1,1,0,13,0
5b01842bc573030001c345e0,44,male,1,1,54,Ambigous_left,1,90,1,20,right,left,right,0,-19,0,0.26,19,784,1597,1.597,3.047,1,1,0,13,0
5b01842bc573030001c345e0,44,male,1,1,57,Ambigous_left,1,90,1,20,right,left,right,0,-19,0,0.139,19,784,1597,1.597,3.047,1,1,0,13,0
5b01842bc573030001c345e0,44,male,1,1,58,Ambigous_left,1,90,1,20,right,left,left,1,0,1,0.136,19,784,1597,1.597,3.047,0,0,0,13,0
5b01842bc573030001c345e0,44,male,1,1,59,Ambigous_left,1,90,1,20,right,left,left,1,0,1,0.14400000000000002,19,784,1597,1.597,3.047,0,0,0,13,0
5b01842bc573030001c345e0,44,male,1,1,63,Ambigous_left,1,90,1,20,right,left,right,0,-19,0,0.154,19,784,1597,1.597,3.047,1,1,0,13,0
5b01842bc573030001c345e0,44,male,1,1,66,Ambigous_left,1,90,1,20,right,left,left,1,0,1,0.129,19,784,1597,1.597,3.047,0,0,0,13,0
5b01842bc573030001c345e0,44,male,1,1,67,Ambigous_left,1,90,1,20,right,left,left,1,0,1,0.121,19,784,1597,1.597,3.047,0,0,0,13,0
5b01842bc573030001c345e0,44,male,1,1,74,Ambigous_left,1,90,1,20,right,left,left,1,0,1,0.19899999999999998,19,784,1597,1.597,3.047,0,0,0,13,0
5b01842bc573030001c345e0,44,male,1,1,82,Ambigous_left,1,90,1,20,right,left,left,1,0,1,0.141,19,784,1597,1.597,3.047,0,0,0,13,0
5b01842bc573030001c345e0,44,male,1,1,87,Ambigous_left,1,90,1,20,right,left,left,1,0,1,0.151,19,784,1597,1.597,3.047,0,0,0,13,0
5b01842bc573030001c345e0,44,male,1,1,91,Ambigous_left,1,90,1,20,right,left,left,1,0,1,0.138,19,784,1597,1.597,3.047,0,0,0,13,0
5b01842bc573030001c345e0,44,male,1,1,95,Ambigous_left,1,90,1,20,right,left,right,0,-19,0,0.136,19,784,1597,1.597,3.047,1,1,0,13,0
5b01842bc573030001c345e0,44,male,1,2,1,Ambigous_left,1,90,1,20,right,left,right,0,-19,0,0.177,10,813,1597,1.597,3.047,1,0,1,0,7
5b01842bc573030001c345e0,44,male,1,2,8,Ambigous_left,1,90,1,20,right,left,left,1,0,1,0.132,10,813,1597,1.597,3.047,0,0,0,0,7
5b01842bc573030001c345e0,44,male,1,2,11,Ambigous_left,1,90,0,0,right,left,left,1,20,1,0.33399999999999996,10,813,1597,1.597,3.047,0,0,0,0,7
5b01842bc573030001c345e0,44,male,1,2,13,Ambigous_left,1,90,1,20,right,left,right,0,-19,0,0.11800000000000001,10,813,1597,1.597,3.047,1,0,1,0,7
5b01842bc573030001c345e0,44,male,1,2,17,Ambigous_left,1,90,1,20,right,left,right,0,-19,0,0.147,10,813,1597,1.597,3.047,1,0,1,0,7
5b01842bc573030001c345e0,44,male,1,2,21,Ambigous_left,1,90,1,20,right,left,left,1,0,1,0.19399999999999998,10,813,1597,1.597,3.047,0,0,0,0,7
5b01842bc573030001c345e0,44,male,1,2,22,Ambigous_left,1,90,0,0,right,left,left,1,20,1,0.278,10,813,1597,1.597,3.047,0,0,0,0,7
5b01842bc573030001c345e0,44,male,1,2,23,Ambigous_left,1,90,1,20,right,left,left,1,0,1,0.152,10,813,1597,1.597,3.047,0,0,0,0,7
5b01842bc573030001c345e0,44,male,1,2,25,Ambigous_left,1,90,0,0,right,left,left,1,20,1,0.313,10,813,1597,1.597,3.047,0,0,0,0,7
5b01842bc573030001c345e0,44,male,1,2,30,Ambigous_left,1,90,1,20,right,left,left,1,0,1,0.23399999999999999,10,813,1597,1.597,3.047,0,0,0,0,7
5b01842bc573030001c345e0,44,male,1,2,32,Ambigous_left,1,90,1,20,right,left,right,0,-19,0,0.21600000000000005,10,813,1597,1.597,3.047,1,0,1,0,7
5b01842bc573030001c345e0,44,male,1,2,34,Ambigous_left,1,90,1,20,right,left,left,1,0,1,0.113,10,813,1597,1.597,3.047,0,0,0,0,7
5b01842bc573030001c345e0,44,male,1,2,44,Ambigous_left,1,90,1,20,right,left,left,1,0,1,0.16899999999999998,10,813,1597,1.597,3.047,0,0,0,0,7
5b01842bc573030001c345e0,44,male,1,2,45,Ambigous_left,1,90,1,20,right,left,right,0,-19,0,0.134,10,813,1597,1.597,3.047,1,0,1,0,7
5b01842bc573030001c345e0,44,male,1,2,47,Ambigous_left,1,90,1,20,right,left,left,1,0,1,0.162,10,813,1597,1.597,3.047,0,0,0,0,7
5b01842bc573030001c345e0,44,male,1,2,49,Ambigous_left,1,90,1,20,right,left,left,1,0,1,0.13699999999999998,10,813,1597,1.597,3.047,0,0,0,0,7
5b01842bc573030001c345e0,44,male,1,2,51,Ambigous_left,1,90,0,0,right,left,left,1,20,1,0.124,10,813,1597,1.597,3.047,0,0,0,0,7
5b01842bc573030001c345e0,44,male,1,2,59,Ambigous_left,1,90,1,20,right,left,right,0,-19,0,0.126,10,813,1597,1.597,3.047,1,0,1,0,7
5b01842bc573030001c345e0,44,male,1,2,61,Ambigous_left,1,90,1,20,right,left,left,1,0,1,0.21,10,813,1597,1.597,3.047,0,0,0,0,7
5b01842bc573030001c345e0,44,male,1,2,62,Ambigous_left,1,90,1,20,right,left,left,1,0,1,0.233,10,813,1597,1.597,3.047,0,0,0,0,7
5b01842bc573030001c345e0,44,male,1,2,65,Ambigous_left,1,90,1,20,right,left,right,0,-19,0,0.1,10,813,1597,1.597,3.047,1,0,1,0,7
5b01842bc573030001c345e0,44,male,1,2,77,Ambigous_left,1,90,1,20,right,left,left,1,0,1,0.282,10,813,1597,1.597,3.047,0,0,0,0,7
5b01842bc573030001c345e0,44,male,1,2,82,Ambigous_left,1,90,0,0,right,left,left,1,20,1,0.166,10,813,1597,1.597,3.047,0,0,0,0,7
5b01842bc573030001c345e0,44,male,1,2,91,Ambigous_left,1,90,1,20,right,left,left,1,0,1,0.192,10,813,1597,1.597,3.047,0,0,0,0,7
5b01842bc573030001c345e0,44,male,1,2,93,Ambigous_left,1,90,0,0,right,left,left,1,20,1,0.124,10,813,1597,1.597,3.047,0,0,0,0,7
5c8d2f74e775150016db3700,20,female,0,1,1,Ambigous_right,1,90,1,20,left,right,left,0,-19,0,0.379,5,760,1553,1.5530000000000002,3.003,1,1,0,2,0
5c8d2f74e775150016db3700,20,female,0,1,2,Ambigous_right,1,90,1,20,left,right,right,1,0,1,0.32799999999999996,5,760,1553,1.5530000000000002,3.003,0,0,0,2,0
5c8d2f74e775150016db3700,20,female,0,1,18,Ambigous_right,1,90,1,20,left,right,right,1,0,1,0.259,5,760,1553,1.5530000000000002,3.003,0,0,0,2,0
5c8d2f74e775150016db3700,20,female,0,1,19,Ambigous_right,1,90,1,20,left,right,right,1,0,1,0.25,5,760,1553,1.5530000000000002,3.003,0,0,0,2,0
5c8d2f74e775150016db3700,20,female,0,1,23,Ambigous_right,1,90,1,20,left,right,right,1,0,1,0.226,5,760,1553,1.5530000000000002,3.003,0,0,0,2,0
5c8d2f74e775150016db3700,20,female,0,1,26,Ambigous_right,1,90,1,20,left,right,right,1,0,1,0.165,5,760,1553,1.5530000000000002,3.003,0,0,0,2,0
5c8d2f74e775150016db3700,20,female,0,1,27,Ambigous_right,1,90,1,20,left,right,right,1,0,1,0.17,5,760,1553,1.5530000000000002,3.003,0,0,0,2,0
5c8d2f74e775150016db3700,20,female,0,1,29,Ambigous_right,1,90,1,20,left,right,right,1,0,1,0.162,5,760,1553,1.5530000000000002,3.003,0,0,0,2,0
5c8d2f74e775150016db3700,20,female,0,1,30,Ambigous_right,1,90,1,20,left,right,right,1,0,1,0.163,5,760,1553,1.5530000000000002,3.003,0,0,0,2,0
5c8d2f74e775150016db3700,20,female,0,1,42,Ambigous_right,1,90,1,20,left,right,right,1,0,1,0.142,5,760,1553,1.5530000000000002,3.003,0,0,0,2,0
5c8d2f74e775150016db3700,20,female,0,1,50,Ambigous_right,1,90,0,0,left,right,right,1,20,1,0.17300000000000001,5,760,1553,1.5530000000000002,3.003,0,0,0,2,0
5c8d2f74e775150016db3700,20,female,0,1,51,Ambigous_right,1,90,1,20,left,right,right,1,0,1,0.16899999999999998,5,760,1553,1.5530000000000002,3.003,0,0,0,2,0
5c8d2f74e775150016db3700,20,female,0,1,53,Ambigous_right,1,90,1,20,left,right,right,1,0,1,0.16699999999999998,5,760,1553,1.5530000000000002,3.003,0,0,0,2,0
5c8d2f74e775150016db3700,20,female,0,1,62,Ambigous_right,1,90,1,20,left,right,left,0,-19,0,0.23600000000000002,5,760,1553,1.5530000000000002,3.003,1,1,0,2,0
5c8d2f74e775150016db3700,20,female,0,1,64,Ambigous_right,1,90,1,20,left,right,right,1,0,1,0.174,5,760,1553,1.5530000000000002,3.003,0,0,0,2,0
5c8d2f74e775150016db3700,20,female,0,1,66,Ambigous_right,1,90,1,20,left,right,right,1,0,1,0.151,5,760,1553,1.5530000000000002,3.003,0,0,0,2,0
5c8d2f74e775150016db3700,20,female,0,1,69,Ambigous_right,1,90,1,20,left,right,right,1,0,1,0.168,5,760,1553,1.5530000000000002,3.003,0,0,0,2,0
5c8d2f74e775150016db3700,20,female,0,1,70,Ambigous_right,1,90,1,20,left,right,right,1,0,1,0.11900000000000001,5,760,1553,1.5530000000000002,3.003,0,0,0,2,0
5c8d2f74e775150016db3700,20,female,0,1,74,Ambigous_right,1,90,1,20,left,right,right,1,0,1,0.131,5,760,1553,1.5530000000000002,3.003,0,0,0,2,0
5c8d2f74e775150016db3700,20,female,0,1,75,Ambigous_right,1,90,1,20,left,right,right,1,0,1,0.161,5,760,1553,1.5530000000000002,3.003,0,0,0,2,0
5c8d2f74e775150016db3700,20,female,0,1,86,Ambigous_right,1,90,1,20,left,right,right,1,0,1,0.14400000000000002,5,760,1553,1.5530000000000002,3.003,0,0,0,2,0
5c8d2f74e775150016db3700,20,female,0,1,91,Ambigous_right,1,90,1,20,left,right,right,1,0,1,0.114,5,760,1553,1.5530000000000002,3.003,0,0,0,2,0
5c8d2f74e775150016db3700,20,female,0,1,98,Ambigous_right,1,90,1,20,left,right,right,1,0,1,0.135,5,760,1553,1.5530000000000002,3.003,0,0,0,2,0
5c8d2f74e775150016db3700,20,female,0,1,99,Ambigous_right,1,90,1,20,left,right,right,1,0,1,0.124,5,760,1553,1.5530000000000002,3.003,0,0,0,2,0
5c8d2f74e775150016db3700,20,female,0,1,100,Ambigous_right,1,90,1,20,left,right,right,1,0,1,0.153,5,760,1553,1.5530000000000002,3.003,0,0,0,2,0
5c8d2f74e775150016db3700,20,female,0,2,1,Ambigous_right,1,90,1,20,left,right,right,1,0,1,0.41200000000000003,10,793,1553,1.5530000000000002,3.003,0,0,0,0,8
5c8d2f74e775150016db3700,20,female,0,2,2,Ambigous_right,1,90,1,20,left,right,right,1,0,1,0.147,10,793,1553,1.5530000000000002,3.003,0,0,0,0,8
5c8d2f74e775150016db3700,20,female,0,2,6,Ambigous_right,1,90,1,20,left,right,left,0,-19,0,0.146,10,793,1553,1.5530000000000002,3.003,1,0,1,0,8
5c8d2f74e775150016db3700,20,female,0,2,7,Ambigous_right,1,90,1,20,left,right,right,1,0,1,0.12,10,793,1553,1.5530000000000002,3.003,0,0,0,0,8
5c8d2f74e775150016db3700,20,female,0,2,8,Ambigous_right,1,90,1,20,left,right,right,1,0,1,0.158,10,793,1553,1.5530000000000002,3.003,0,0,0,0,8
5c8d2f74e775150016db3700,20,female,0,2,13,Ambigous_right,1,90,1,20,left,right,right,1,0,1,0.16699999999999998,10,793,1553,1.5530000000000002,3.003,0,0,0,0,8
5c8d2f74e775150016db3700,20,female,0,2,16,Ambigous_right,1,90,1,20,left,right,right,1,0,1,0.136,10,793,1553,1.5530000000000002,3.003,0,0,0,0,8
5c8d2f74e775150016db3700,20,female,0,2,20,Ambigous_right,1,90,1,20,left,right,right,1,0,1,0.14,10,793,1553,1.5530000000000002,3.003,0,0,0,0,8
5c8d2f74e775150016db3700,20,female,0,2,22,Ambigous_right,1,90,1,20,left,right,left,0,-19,0,0.154,10,793,1553,1.5530000000000002,3.003,1,0,1,0,8
5c8d2f74e775150016db3700,20,female,0,2,27,Ambigous_right,1,90,0,0,left,right,right,1,20,1,0.145,10,793,1553,1.5530000000000002,3.003,0,0,0,0,8
5c8d2f74e775150016db3700,20,female,0,2,34,Ambigous_right,1,90,0,0,left,right,right,1,20,1,0.129,10,793,1553,1.5530000000000002,3.003,0,0,0,0,8
5c8d2f74e775150016db3700,20,female,0,2,36,Ambigous_right,1,90,1,20,left,right,left,0,-19,0,0.145,10,793,1553,1.5530000000000002,3.003,1,0,1,0,8
5c8d2f74e775150016db3700,20,female,0,2,44,Ambigous_right,1,90,1,20,left,right,right,1,0,1,0.128,10,793,1553,1.5530000000000002,3.003,0,0,0,0,8
5c8d2f74e775150016db3700,20,female,0,2,48,Ambigous_right,1,90,1,20,left,right,right,1,0,1,0.15,10,793,1553,1.5530000000000002,3.003,0,0,0,0,8
5c8d2f74e775150016db3700,20,female,0,2,49,Ambigous_right,1,90,1,20,left,right,right,1,0,1,0.175,10,793,1553,1.5530000000000002,3.003,0,0,0,0,8
5c8d2f74e775150016db3700,20,female,0,2,50,Ambigous_right,1,90,1,20,left,right,right,1,0,1,0.147,10,793,1553,1.5530000000000002,3.003,0,0,0,0,8
5c8d2f74e775150016db3700,20,female,0,2,61,Ambigous_right,1,90,1,20,left,right,left,0,-19,0,0.156,10,793,1553,1.5530000000000002,3.003,1,0,1,0,8
5c8d2f74e775150016db3700,20,female,0,2,62,Ambigous_right,1,90,1,20,left,right,right,1,0,1,0.16899999999999998,10,793,1553,1.5530000000000002,3.003,0,0,0,0,8
5c8d2f74e775150016db3700,20,female,0,2,63,Ambigous_right,1,90,1,20,left,right,right,1,0,1,0.146,10,793,1553,1.5530000000000002,3.003,0,0,0,0,8
5c8d2f74e775150016db3700,20,female,0,2,64,Ambigous_right,1,90,1,20,left,right,right,1,0,1,0.162,10,793,1553,1.5530000000000002,3.003,0,0,0,0,8
5c8d2f74e775150016db3700,20,female,0,2,71,Ambigous_right,1,90,1,20,left,right,right,1,0,1,0.154,10,793,1553,1.5530000000000002,3.003,0,0,0,0,8
5c8d2f74e775150016db3700,20,female,0,2,76,Ambigous_right,1,90,1,20,left,right,left,0,-19,0,0.17,10,793,1553,1.5530000000000002,3.003,1,0,1,0,8
5c8d2f74e775150016db3700,20,female,0,2,84,Ambigous_right,1,90,1,20,left,right,left,0,-19,0,0.267,10,793,1553,1.5530000000000002,3.003,1,0,1,0,8
5c8d2f74e775150016db3700,20,female,0,2,86,Ambigous_right,1,90,1,20,left,right,left,0,-19,0,0.14800000000000002,10,793,1553,1.5530000000000002,3.003,1,0,1,0,8
5c8d2f74e775150016db3700,20,female,0,2,90,Ambigous_right,1,90,1,20,left,right,left,0,-19,0,0.19399999999999998,10,793,1553,1.5530000000000002,3.003,1,0,1,0,8
5c91c01129b394001a4e473b,23,male,1,1,4,Ambigous_left,3,0,0,0,right,left,left,1,2,1,0.294,8,137,283,0.28300000000000003,1.733,0,0,0,2,0
5c91c01129b394001a4e473b,23,male,1,1,7,Ambigous_left,3,0,0,0,right,left,right,2,1,0,0.502,8,137,283,0.28300000000000003,1.733,1,1,0,2,0
5c91c01129b394001a4e473b,23,male,1,1,14,Ambigous_left,3,0,0,0,right,left,left,1,2,1,0.728,8,137,283,0.28300000000000003,1.733,0,0,0,2,0
5c91c01129b394001a4e473b,23,male,1,1,20,Ambigous_left,3,0,0,0,right,left,left,1,2,1,0.18899999999999997,8,137,283,0.28300000000000003,1.733,0,0,0,2,0
5c91c01129b394001a4e473b,23,male,1,1,24,Ambigous_left,3,0,0,0,right,left,left,1,2,1,0.158,8,137,283,0.28300000000000003,1.733,0,0,0,2,0
5c91c01129b394001a4e473b,23,male,1,1,26,Ambigous_left,3,0,0,0,right,left,left,1,2,1,0.11900000000000001,8,137,283,0.28300000000000003,1.733,0,0,0,2,0
5c91c01129b394001a4e473b,23,male,1,1,27,Ambigous_left,3,0,0,0,right,left,left,1,2,1,0.11800000000000001,8,137,283,0.28300000000000003,1.733,0,0,0,2,0
5c91c01129b394001a4e473b,23,male,1,1,39,Ambigous_left,3,0,0,0,right,left,left,1,2,1,0.132,8,137,283,0.28300000000000003,1.733,0,0,0,2,0
5c91c01129b394001a4e473b,23,male,1,1,40,Ambigous_left,3,0,0,0,right,left,left,1,2,1,0.34299999999999997,8,137,283,0.28300000000000003,1.733,0,0,0,2,0
5c91c01129b394001a4e473b,23,male,1,1,41,Ambigous_left,3,0,0,0,right,left,left,1,2,1,0.263,8,137,283,0.28300000000000003,1.733,0,0,0,2,0
5c91c01129b394001a4e473b,23,male,1,1,43,Ambigous_left,3,0,0,0,right,left,left,1,2,1,0.156,8,137,283,0.28300000000000003,1.733,0,0,0,2,0
5c91c01129b394001a4e473b,23,male,1,1,44,Ambigous_left,3,0,0,0,right,left,left,1,2,1,0.4970000000000001,8,137,283,0.28300000000000003,1.733,0,0,0,2,0
5c91c01129b394001a4e473b,23,male,1,1,49,Ambigous_left,3,0,0,0,right,left,right,2,1,0,0.591,8,137,283,0.28300000000000003,1.733,1,1,0,2,0
5c91c01129b394001a4e473b,23,male,1,1,55,Ambigous_left,3,0,0,0,right,left,left,1,2,1,0.16399999999999998,8,137,283,0.28300000000000003,1.733,0,0,0,2,0
5c91c01129b394001a4e473b,23,male,1,1,65,Ambigous_left,3,0,0,0,right,left,left,1,2,1,0.134,8,137,283,0.28300000000000003,1.733,0,0,0,2,0
5c91c01129b394001a4e473b,23,male,1,1,69,Ambigous_left,3,0,0,0,right,left,left,1,2,1,0.09699999999999999,8,137,283,0.28300000000000003,1.733,0,0,0,2,0
5c91c01129b394001a4e473b,23,male,1,1,73,Ambigous_left,3,0,0,0,right,left,left,1,2,1,0.27399999999999997,8,137,283,0.28300000000000003,1.733,0,0,0,2,0
5c91c01129b394001a4e473b,23,male,1,1,84,Ambigous_left,3,0,0,0,right,left,left,1,2,1,0.13,8,137,283,0.28300000000000003,1.733,0,0,0,2,0
5c91c01129b394001a4e473b,23,male,1,1,87,Ambigous_left,3,0,0,0,right,left,left,1,2,1,0.139,8,137,283,0.28300000000000003,1.733,0,0,0,2,0
5c91c01129b394001a4e473b,23,male,1,1,90,Ambigous_left,3,0,0,0,right,left,left,1,2,1,0.107,8,137,283,0.28300000000000003,1.733,0,0,0,2,0
5c91c01129b394001a4e473b,23,male,1,1,91,Ambigous_left,3,0,0,0,right,left,left,1,2,1,0.20199999999999999,8,137,283,0.28300000000000003,1.733,0,0,0,2,0
5c91c01129b394001a4e473b,23,male,1,1,94,Ambigous_left,3,0,0,0,right,left,left,1,2,1,0.124,8,137,283,0.28300000000000003,1.733,0,0,0,2,0
5c91c01129b394001a4e473b,23,male,1,1,95,Ambigous_left,3,0,0,0,right,left,left,1,2,1,0.21,8,137,283,0.28300000000000003,1.733,0,0,0,2,0
5c91c01129b394001a4e473b,23,male,1,1,98,Ambigous_left,3,0,0,0,right,left,left,1,2,1,0.105,8,137,283,0.28300000000000003,1.733,0,0,0,2,0
5c91c01129b394001a4e473b,23,male,1,1,99,Ambigous_left,3,0,0,0,right,left,left,1,2,1,0.09699999999999999,8,137,283,0.28300000000000003,1.733,0,0,0,2,0
5c91c01129b394001a4e473b,23,male,1,2,6,Ambigous_left,3,0,0,0,right,left,left,1,2,1,0.07400000000000001,9,146,283,0.28300000000000003,1.733,0,0,0,0,7
5c91c01129b394001a4e473b,23,male,1,2,11,Ambigous_left,3,0,0,0,right,left,left,1,2,1,0.1,9,146,283,0.28300000000000003,1.733,0,0,0,0,7
5c91c01129b394001a4e473b,23,male,1,2,21,Ambigous_left,3,0,0,0,right,left,left,1,2,1,0.122,9,146,283,0.28300000000000003,1.733,0,0,0,0,7
5c91c01129b394001a4e473b,23,male,1,2,23,Ambigous_left,3,0,0,0,right,left,left,1,2,1,0.11199999999999999,9,146,283,0.28300000000000003,1.733,0,0,0,0,7
5c91c01129b394001a4e473b,23,male,1,2,26,Ambigous_left,3,0,0,0,right,left,left,1,2,1,0.129,9,146,283,0.28300000000000003,1.733,0,0,0,0,7
5c91c01129b394001a4e473b,23,male,1,2,31,Ambigous_left,3,0,0,0,right,left,left,1,2,1,0.115,9,146,283,0.28300000000000003,1.733,0,0,0,0,7
5c91c01129b394001a4e473b,23,male,1,2,34,Ambigous_left,3,0,0,0,right,left,left,1,2,1,0.142,9,146,283,0.28300000000000003,1.733,0,0,0,0,7
5c91c01129b394001a4e473b,23,male,1,2,35,Ambigous_left,3,0,0,0,right,left,left,1,2,1,0.10800000000000001,9,146,283,0.28300000000000003,1.733,0,0,0,0,7
5c91c01129b394001a4e473b,23,male,1,2,40,Ambigous_left,3,0,0,0,right,left,right,2,1,0,0.207,9,146,283,0.28300000000000003,1.733,1,0,1,0,7
5c91c01129b394001a4e473b,23,male,1,2,42,Ambigous_left,3,0,0,0,right,left,left,1,2,1,0.24600000000000002,9,146,283,0.28300000000000003,1.733,0,0,0,0,7
5c91c01129b394001a4e473b,23,male,1,2,50,Ambigous_left,3,0,0,0,right,left,left,1,2,1,0.158,9,146,283,0.28300000000000003,1.733,0,0,0,0,7
5c91c01129b394001a4e473b,23,male,1,2,64,Ambigous_left,3,0,0,0,right,left,left,1,2,1,0.19,9,146,283,0.28300000000000003,1.733,0,0,0,0,7
5c91c01129b394001a4e473b,23,male,1,2,67,Ambigous_left,3,0,0,0,right,left,left,1,2,1,0.185,9,146,283,0.28300000000000003,1.733,0,0,0,0,7
5c91c01129b394001a4e473b,23,male,1,2,70,Ambigous_left,3,0,0,0,right,left,left,1,2,1,0.14300000000000002,9,146,283,0.28300000000000003,1.733,0,0,0,0,7
5c91c01129b394001a4e473b,23,male,1,2,71,Ambigous_left,3,0,0,0,right,left,right,2,1,0,0.24600000000000002,9,146,283,0.28300000000000003,1.733,1,0,1,0,7
5c91c01129b394001a4e473b,23,male,1,2,74,Ambigous_left,3,0,0,0,right,left,right,2,1,0,0.193,9,146,283,0.28300000000000003,1.733,1,0,1,0,7
5c91c01129b394001a4e473b,23,male,1,2,78,Ambigous_left,3,0,0,0,right,left,left,1,2,1,0.145,9,146,283,0.28300000000000003,1.733,0,0,0,0,7
5c91c01129b394001a4e473b,23,male,1,2,80,Ambigous_left,3,0,0,0,right,left,right,2,1,0,0.13,9,146,283,0.28300000000000003,1.733,1,0,1,0,7
5c91c01129b394001a4e473b,23,male,1,2,83,Ambigous_left,3,0,0,0,right,left,right,2,1,0,0.131,9,146,283,0.28300000000000003,1.733,1,0,1,0,7
5c91c01129b394001a4e473b,23,male,1,2,86,Ambigous_left,3,0,0,0,right,left,right,2,1,0,0.092,9,146,283,0.28300000000000003,1.733,1,0,1,0,7
5c91c01129b394001a4e473b,23,male,1,2,87,Ambigous_left,3,0,0,0,right,left,left,1,2,1,0.257,9,146,283,0.28300000000000003,1.733,0,0,0,0,7
5c91c01129b394001a4e473b,23,male,1,2,90,Ambigous_left,3,0,0,0,right,left,left,1,2,1,0.106,9,146,283,0.28300000000000003,1.733,0,0,0,0,7
5c91c01129b394001a4e473b,23,male,1,2,92,Ambigous_left,3,0,0,0,right,left,left,1,2,1,0.113,9,146,283,0.28300000000000003,1.733,0,0,0,0,7
5c91c01129b394001a4e473b,23,male,1,2,98,Ambigous_left,3,0,0,0,right,left,right,2,1,0,0.18,9,146,283,0.28300000000000003,1.733,1,0,1,0,7
5c91c01129b394001a4e473b,23,male,1,2,99,Ambigous_left,3,0,0,0,right,left,left,1,2,1,0.233,9,146,283,0.28300000000000003,1.733,0,0,0,0,7
5da6a24a5b8ad1001570f6ae,61,female,1,1,2,Ambigous_right,1,90,1,20,left,right,right,1,0,1,0.28800000000000003,10,889,1760,1.76,3.21,0,0,0,9,0
5da6a24a5b8ad1001570f6ae,61,female,1,1,3,Ambigous_right,1,90,1,20,left,right,left,0,-19,0,0.32299999999999995,10,889,1760,1.76,3.21,1,1,0,9,0
5da6a24a5b8ad1001570f6ae,61,female,1,1,5,Ambigous_right,1,90,1,20,left,right,right,1,0,1,0.24600000000000002,10,889,1760,1.76,3.21,0,0,0,9,0
5da6a24a5b8ad1001570f6ae,61,female,1,1,7,Ambigous_right,1,90,1,20,left,right,left,0,-19,0,0.359,10,889,1760,1.76,3.21,1,1,0,9,0
5da6a24a5b8ad1001570f6ae,61,female,1,1,9,Ambigous_right,1,90,1,20,left,right,right,1,0,1,0.255,10,889,1760,1.76,3.21,0,0,0,9,0
5da6a24a5b8ad1001570f6ae,61,female,1,1,11,Ambigous_right,1,90,1,20,left,right,left,0,-19,0,0.27699999999999997,10,889,1760,1.76,3.21,1,1,0,9,0
5da6a24a5b8ad1001570f6ae,61,female,1,1,16,Ambigous_right,1,90,1,20,left,right,right,1,0,1,0.26899999999999996,10,889,1760,1.76,3.21,0,0,0,9,0
5da6a24a5b8ad1001570f6ae,61,female,1,1,21,Ambigous_right,1,90,1,20,left,right,right,1,0,1,0.275,10,889,1760,1.76,3.21,0,0,0,9,0
5da6a24a5b8ad1001570f6ae,61,female,1,1,22,Ambigous_right,1,90,1,20,left,right,right,1,0,1,0.212,10,889,1760,1.76,3.21,0,0,0,9,0
5da6a24a5b8ad1001570f6ae,61,female,1,1,23,Ambigous_right,1,90,1,20,left,right,right,1,0,1,0.293,10,889,1760,1.76,3.21,0,0,0,9,0
5da6a24a5b8ad1001570f6ae,61,female,1,1,34,Ambigous_right,1,90,1,20,left,right,right,1,0,1,0.28300000000000003,10,889,1760,1.76,3.21,0,0,0,9,0
5da6a24a5b8ad1001570f6ae,61,female,1,1,37,Ambigous_right,1,90,1,20,left,right,left,0,-19,0,0.308,10,889,1760,1.76,3.21,1,1,0,9,0
5da6a24a5b8ad1001570f6ae,61,female,1,1,41,Ambigous_right,1,90,1,20,left,right,right,1,0,1,0.29600000000000004,10,889,1760,1.76,3.21,0,0,0,9,0
5da6a24a5b8ad1001570f6ae,61,female,1,1,46,Ambigous_right,1,90,1,20,left,right,left,0,-19,0,0.299,10,889,1760,1.76,3.21,1,1,0,9,0
5da6a24a5b8ad1001570f6ae,61,female,1,1,47,Ambigous_right,1,90,0,0,left,right,left,20,1,0,0.258,10,889,1760,1.76,3.21,1,1,0,9,0
5da6a24a5b8ad1001570f6ae,61,female,1,1,49,Ambigous_right,1,90,1,20,left,right,right,1,0,1,0.4320000000000001,10,889,1760,1.76,3.21,0,0,0,9,0
5da6a24a5b8ad1001570f6ae,61,female,1,1,58,Ambigous_right,1,90,1,20,left,right,right,1,0,1,0.32899999999999996,10,889,1760,1.76,3.21,0,0,0,9,0
5da6a24a5b8ad1001570f6ae,61,female,1,1,66,Ambigous_right,1,90,1,20,left,right,left,0,-19,0,0.306,10,889,1760,1.76,3.21,1,1,0,9,0
5da6a24a5b8ad1001570f6ae,61,female,1,1,69,Ambigous_right,1,90,1,20,left,right,left,0,-19,0,0.593,10,889,1760,1.76,3.21,1,1,0,9,0
5da6a24a5b8ad1001570f6ae,61,female,1,1,71,Ambigous_right,1,90,1,20,left,right,left,0,-19,0,0.51,10,889,1760,1.76,3.21,1,1,0,9,0
5da6a24a5b8ad1001570f6ae,61,female,1,1,74,Ambigous_right,1,90,1,20,left,right,right,1,0,1,0.22899999999999998,10,889,1760,1.76,3.21,0,0,0,9,0
5da6a24a5b8ad1001570f6ae,61,female,1,1,75,Ambigous_right,1,90,1,20,left,right,right,1,0,1,0.196,10,889,1760,1.76,3.21,0,0,0,9,0
5da6a24a5b8ad1001570f6ae,61,female,1,1,80,Ambigous_right,1,90,1,20,left,right,right,1,0,1,0.317,10,889,1760,1.76,3.21,0,0,0,9,0
5da6a24a5b8ad1001570f6ae,61,female,1,1,94,Ambigous_right,1,90,1,20,left,right,right,1,0,1,0.21600000000000005,10,889,1760,1.76,3.21,0,0,0,9,0
5da6a24a5b8ad1001570f6ae,61,female,1,1,98,Ambigous_right,1,90,1,20,left,right,right,1,0,1,0.794,10,889,1760,1.76,3.21,0,0,0,9,0
5da6a24a5b8ad1001570f6ae,61,female,1,2,2,Ambigous_right,1,90,1,20,left,right,right,1,0,1,0.322,10,871,1760,1.76,3.21,0,0,0,0,8
5da6a24a5b8ad1001570f6ae,61,female,1,2,7,Ambigous_right,1,90,0,0,left,right,left,20,1,0,0.258,10,871,1760,1.76,3.21,1,0,1,0,8
5da6a24a5b8ad1001570f6ae,61,female,1,2,12,Ambigous_right,1,90,1,20,left,right,right,1,0,1,0.252,10,871,1760,1.76,3.21,0,0,0,0,8
5da6a24a5b8ad1001570f6ae,61,female,1,2,16,Ambigous_right,1,90,1,20,left,right,right,1,0,1,0.17,10,871,1760,1.76,3.21,0,0,0,0,8
5da6a24a5b8ad1001570f6ae,61,female,1,2,18,Ambigous_right,1,90,1,20,left,right,right,1,0,1,0.48100000000000004,10,871,1760,1.76,3.21,0,0,0,0,8
5da6a24a5b8ad1001570f6ae,61,female,1,2,21,Ambigous_right,1,90,1,20,left,right,right,1,0,1,0.184,10,871,1760,1.76,3.21,0,0,0,0,8
5da6a24a5b8ad1001570f6ae,61,female,1,2,27,Ambigous_right,1,90,1,20,left,right,right,1,0,1,0.2,10,871,1760,1.76,3.21,0,0,0,0,8
5da6a24a5b8ad1001570f6ae,61,female,1,2,29,Ambigous_right,1,90,1,20,left,right,right,1,0,1,0.428,10,871,1760,1.76,3.21,0,0,0,0,8
5da6a24a5b8ad1001570f6ae,61,female,1,2,33,Ambigous_right,1,90,1,20,left,right,left,0,-19,0,0.631,10,871,1760,1.76,3.21,1,0,1,0,8
5da6a24a5b8ad1001570f6ae,61,female,1,2,35,Ambigous_right,1,90,1,20,left,right,right,1,0,1,0.198,10,871,1760,1.76,3.21,0,0,0,0,8
5da6a24a5b8ad1001570f6ae,61,female,1,2,37,Ambigous_right,1,90,1,20,left,right,right,1,0,1,0.299,10,871,1760,1.76,3.21,0,0,0,0,8
5da6a24a5b8ad1001570f6ae,61,female,1,2,42,Ambigous_right,1,90,1,20,left,right,left,0,-19,0,0.28600000000000003,10,871,1760,1.76,3.21,1,0,1,0,8
5da6a24a5b8ad1001570f6ae,61,female,1,2,47,Ambigous_right,1,90,1,20,left,right,left,0,-19,0,0.348,10,871,1760,1.76,3.21,1,0,1,0,8
5da6a24a5b8ad1001570f6ae,61,female,1,2,48,Ambigous_right,1,90,0,0,left,right,left,20,1,0,0.244,10,871,1760,1.76,3.21,1,0,1,0,8
5da6a24a5b8ad1001570f6ae,61,female,1,2,50,Ambigous_right,1,90,1,20,left,right,right,1,0,1,0.37,10,871,1760,1.76,3.21,0,0,0,0,8
5da6a24a5b8ad1001570f6ae,61,female,1,2,59,Ambigous_right,1,90,1,20,left,right,right,1,0,1,0.297,10,871,1760,1.76,3.21,0,0,0,0,8
5da6a24a5b8ad1001570f6ae,61,female,1,2,63,Ambigous_right,1,90,0,0,left,right,right,1,20,1,0.17800000000000002,10,871,1760,1.76,3.21,0,0,0,0,8
5da6a24a5b8ad1001570f6ae,61,female,1,2,64,Ambigous_right,1,90,1,20,left,right,left,0,-19,0,0.396,10,871,1760,1.76,3.21,1,0,1,0,8
5da6a24a5b8ad1001570f6ae,61,female,1,2,75,Ambigous_right,1,90,1,20,left,right,left,0,-19,0,0.28,10,871,1760,1.76,3.21,1,0,1,0,8
5da6a24a5b8ad1001570f6ae,61,female,1,2,80,Ambigous_right,1,90,1,20,left,right,left,0,-19,0,0.41700000000000004,10,871,1760,1.76,3.21,1,0,1,0,8
5da6a24a5b8ad1001570f6ae,61,female,1,2,82,Ambigous_right,1,90,1,20,left,right,right,1,0,1,0.27,10,871,1760,1.76,3.21,0,0,0,0,8
5da6a24a5b8ad1001570f6ae,61,female,1,2,85,Ambigous_right,1,90,1,20,left,right,right,1,0,1,0.743,10,871,1760,1.76,3.21,0,0,0,0,8
5da6a24a5b8ad1001570f6ae,61,female,1,2,87,Ambigous_right,1,90,1,20,left,right,right,1,0,1,0.184,10,871,1760,1.76,3.21,0,0,0,0,8
5da6a24a5b8ad1001570f6ae,61,female,1,2,96,Ambigous_right,1,90,1,20,left,right,right,1,0,1,0.24100000000000002,10,871,1760,1.76,3.21,0,0,0,0,8
5da6a24a5b8ad1001570f6ae,61,female,1,2,98,Ambigous_right,1,90,1,20,left,right,right,1,0,1,0.35200000000000004,10,871,1760,1.76,3.21,0,0,0,0,8
5ddaf4f37aa0d6a6c2c53af6,27,female,1,1,4,Ambigous_right,2,10,0,0,left,right,right,1,20,1,0.10800000000000001,25,738,1409,1.409,2.859,0,0,0,12,0
5ddaf4f37aa0d6a6c2c53af6,27,female,1,1,8,Ambigous_right,2,10,0,0,left,right,right,1,20,1,0.09300000000000001,25,738,1409,1.409,2.859,0,0,0,12,0
5ddaf4f37aa0d6a6c2c53af6,27,female,1,1,9,Ambigous_right,2,10,0,0,left,right,right,1,20,1,0.111,25,738,1409,1.409,2.859,0,0,0,12,0
5ddaf4f37aa0d6a6c2c53af6,27,female,1,1,12,Ambigous_right,2,10,0,0,left,right,left,20,1,0,0.06,25,738,1409,1.409,2.859,1,1,0,12,0
5ddaf4f37aa0d6a6c2c53af6,27,female,1,1,17,Ambigous_right,2,10,0,0,left,right,right,1,20,1,0.055999999999999994,25,738,1409,1.409,2.859,0,0,0,12,0
5ddaf4f37aa0d6a6c2c53af6,27,female,1,1,18,Ambigous_right,2,10,0,0,left,right,right,1,20,1,0.087,25,738,1409,1.409,2.859,0,0,0,12,0
5ddaf4f37aa0d6a6c2c53af6,27,female,1,1,20,Ambigous_right,2,10,0,0,left,right,right,1,20,1,0.07,25,738,1409,1.409,2.859,0,0,0,12,0
5ddaf4f37aa0d6a6c2c53af6,27,female,1,1,21,Ambigous_right,2,10,0,0,left,right,right,1,20,1,0.061,25,738,1409,1.409,2.859,0,0,0,12,0
5ddaf4f37aa0d6a6c2c53af6,27,female,1,1,23,Ambigous_right,2,10,0,0,left,right,left,20,1,0,0.055999999999999994,25,738,1409,1.409,2.859,1,1,0,12,0
5ddaf4f37aa0d6a6c2c53af6,27,female,1,1,24,Ambigous_right,2,10,1,180,left,right,right,1,-160,1,0.068,25,738,1409,1.409,2.859,0,0,0,12,0
5ddaf4f37aa0d6a6c2c53af6,27,female,1,1,28,Ambigous_right,2,10,0,0,left,right,right,1,20,1,0.11699999999999999,25,738,1409,1.409,2.859,0,0,0,12,0
5ddaf4f37aa0d6a6c2c53af6,27,female,1,1,29,Ambigous_right,2,10,0,0,left,right,right,1,20,1,0.061,25,738,1409,1.409,2.859,0,0,0,12,0
5ddaf4f37aa0d6a6c2c53af6,27,female,1,1,34,Ambigous_right,2,10,0,0,left,right,right,1,20,1,0.061,25,738,1409,1.409,2.859,0,0,0,12,0
5ddaf4f37aa0d6a6c2c53af6,27,female,1,1,35,Ambigous_right,2,10,0,0,left,right,left,20,1,0,0.069,25,738,1409,1.409,2.859,1,1,0,12,0
5ddaf4f37aa0d6a6c2c53af6,27,female,1,1,42,Ambigous_right,2,10,0,0,left,right,left,20,1,0,0.067,25,738,1409,1.409,2.859,1,1,0,12,0
5ddaf4f37aa0d6a6c2c53af6,27,female,1,1,44,Ambigous_right,2,10,0,0,left,right,left,20,1,0,0.09,25,738,1409,1.409,2.859,1,1,0,12,0
5ddaf4f37aa0d6a6c2c53af6,27,female,1,1,48,Ambigous_right,2,10,0,0,left,right,left,20,1,0,0.066,25,738,1409,1.409,2.859,1,1,0,12,0
5ddaf4f37aa0d6a6c2c53af6,27,female,1,1,58,Ambigous_right,2,10,0,0,left,right,left,20,1,0,0.057,25,738,1409,1.409,2.859,1,1,0,12,0
5ddaf4f37aa0d6a6c2c53af6,27,female,1,1,63,Ambigous_right,2,10,1,180,left,right,left,-160,-179,0,0.115,25,738,1409,1.409,2.859,1,1,0,12,0
5ddaf4f37aa0d6a6c2c53af6,27,female,1,1,70,Ambigous_right,2,10,0,0,left,right,left,20,1,0,0.064,25,738,1409,1.409,2.859,1,1,0,12,0
5ddaf4f37aa0d6a6c2c53af6,27,female,1,1,71,Ambigous_right,2,10,0,0,left,right,right,1,20,1,0.049,25,738,1409,1.409,2.859,0,0,0,12,0
5ddaf4f37aa0d6a6c2c53af6,27,female,1,1,73,Ambigous_right,2,10,0,0,left,right,left,20,1,0,0.059000000000000004,25,738,1409,1.409,2.859,1,1,0,12,0
5ddaf4f37aa0d6a6c2c53af6,27,female,1,1,74,Ambigous_right,2,10,0,0,left,right,right,1,20,1,0.113,25,738,1409,1.409,2.859,0,0,0,12,0
5ddaf4f37aa0d6a6c2c53af6,27,female,1,1,75,Ambigous_right,2,10,0,0,left,right,left,20,1,0,0.127,25,738,1409,1.409,2.859,1,1,0,12,0
5ddaf4f37aa0d6a6c2c53af6,27,female,1,1,87,Ambigous_right,2,10,0,0,left,right,left,20,1,0,0.083,25,738,1409,1.409,2.859,1,1,0,12,0
5ddaf4f37aa0d6a6c2c53af6,27,female,1,2,4,Ambigous_right,2,10,0,0,left,right,left,20,1,0,0.043,14,671,1409,1.409,2.859,1,0,1,0,9
5ddaf4f37aa0d6a6c2c53af6,27,female,1,2,5,Ambigous_right,2,10,0,0,left,right,left,20,1,0,0.028999999999999998,14,671,1409,1.409,2.859,1,0,1,0,9
5ddaf4f37aa0d6a6c2c53af6,27,female,1,2,8,Ambigous_right,2,10,1,180,left,right,right,1,-160,1,0.087,14,671,1409,1.409,2.859,0,0,0,0,9
5ddaf4f37aa0d6a6c2c53af6,27,female,1,2,9,Ambigous_right,2,10,0,0,left,right,left,20,1,0,0.055,14,671,1409,1.409,2.859,1,0,1,0,9
5ddaf4f37aa0d6a6c2c53af6,27,female,1,2,13,Ambigous_right,2,10,0,0,left,right,right,1,20,1,0.07200000000000001,14,671,1409,1.409,2.859,0,0,0,0,9
5ddaf4f37aa0d6a6c2c53af6,27,female,1,2,14,Ambigous_right,2,10,0,0,left,right,left,20,1,0,0.095,14,671,1409,1.409,2.859,1,0,1,0,9
5ddaf4f37aa0d6a6c2c53af6,27,female,1,2,16,Ambigous_right,2,10,0,0,left,right,left,20,1,0,0.046,14,671,1409,1.409,2.859,1,0,1,0,9
5ddaf4f37aa0d6a6c2c53af6,27,female,1,2,20,Ambigous_right,2,10,1,180,left,right,right,1,-160,1,0.064,14,671,1409,1.409,2.859,0,0,0,0,9
5ddaf4f37aa0d6a6c2c53af6,27,female,1,2,27,Ambigous_right,2,10,0,0,left,right,left,20,1,0,0.07400000000000001,14,671,1409,1.409,2.859,1,0,1,0,9
5ddaf4f37aa0d6a6c2c53af6,27,female,1,2,28,Ambigous_right,2,10,0,0,left,right,right,1,20,1,0.039,14,671,1409,1.409,2.859,0,0,0,0,9
5ddaf4f37aa0d6a6c2c53af6,27,female,1,2,32,Ambigous_right,2,10,0,0,left,right,right,1,20,1,0.049,14,671,1409,1.409,2.859,0,0,0,0,9
5ddaf4f37aa0d6a6c2c53af6,27,female,1,2,34,Ambigous_right,2,10,0,0,left,right,left,20,1,0,0.046,14,671,1409,1.409,2.859,1,0,1,0,9
5ddaf4f37aa0d6a6c2c53af6,27,female,1,2,55,Ambigous_right,2,10,0,0,left,right,right,1,20,1,0.042,14,671,1409,1.409,2.859,0,0,0,0,9
5ddaf4f37aa0d6a6c2c53af6,27,female,1,2,58,Ambigous_right,2,10,0,0,left,right,right,1,20,1,0.052000000000000005,14,671,1409,1.409,2.859,0,0,0,0,9
5ddaf4f37aa0d6a6c2c53af6,27,female,1,2,59,Ambigous_right,2,10,0,0,left,right,right,1,20,1,0.07,14,671,1409,1.409,2.859,0,0,0,0,9
5ddaf4f37aa0d6a6c2c53af6,27,female,1,2,61,Ambigous_right,2,10,0,0,left,right,left,20,1,0,0.052000000000000005,14,671,1409,1.409,2.859,1,0,1,0,9
5ddaf4f37aa0d6a6c2c53af6,27,female,1,2,82,Ambigous_right,2,10,0,0,left,right,right,1,20,1,0.042,14,671,1409,1.409,2.859,0,0,0,0,9
5ddaf4f37aa0d6a6c2c53af6,27,female,1,2,86,Ambigous_right,2,10,0,0,left,right,right,1,20,1,0.052000000000000005,14,671,1409,1.409,2.859,0,0,0,0,9
5ddaf4f37aa0d6a6c2c53af6,27,female,1,2,88,Ambigous_right,2,10,0,0,left,right,right,1,20,1,0.078,14,671,1409,1.409,2.859,0,0,0,0,9
5ddaf4f37aa0d6a6c2c53af6,27,female,1,2,89,Ambigous_right,2,10,0,0,left,right,right,1,20,1,0.057,14,671,1409,1.409,2.859,0,0,0,0,9
5ddaf4f37aa0d6a6c2c53af6,27,female,1,2,91,Ambigous_right,2,10,0,0,left,right,left,20,1,0,0.10400000000000001,14,671,1409,1.409,2.859,1,0,1,0,9
5ddaf4f37aa0d6a6c2c53af6,27,female,1,2,92,Ambigous_right,2,10,0,0,left,right,right,1,20,1,0.071,14,671,1409,1.409,2.859,0,0,0,0,9
5ddaf4f37aa0d6a6c2c53af6,27,female,1,2,93,Ambigous_right,2,10,0,0,left,right,right,1,20,1,0.046,14,671,1409,1.409,2.859,0,0,0,0,9
5ddaf4f37aa0d6a6c2c53af6,27,female,1,2,96,Ambigous_right,2,10,0,0,left,right,right,1,20,1,0.079,14,671,1409,1.409,2.859,0,0,0,0,9
5ddaf4f37aa0d6a6c2c53af6,27,female,1,2,98,Ambigous_right,2,10,0,0,left,right,right,1,20,1,0.054000000000000006,14,671,1409,1.409,2.859,0,0,0,0,9
5e3974014e49b0000aea3d11,21,female,1,1,2,Ambigous_left,3,0,0,0,right,left,right,2,1,0,0.24600000000000002,17,158,320,0.32,1.77,1,1,0,15,0
5e3974014e49b0000aea3d11,21,female,1,1,3,Ambigous_left,3,0,0,0,right,left,left,1,2,1,0.221,17,158,320,0.32,1.77,0,0,0,15,0
5e3974014e49b0000aea3d11,21,female,1,1,9,Ambigous_left,3,0,0,0,right,left,right,2,1,0,0.17300000000000001,17,158,320,0.32,1.77,1,1,0,15,0
5e3974014e49b0000aea3d11,21,female,1,1,18,Ambigous_left,3,0,0,0,right,left,left,1,2,1,0.203,17,158,320,0.32,1.77,0,0,0,15,0
5e3974014e49b0000aea3d11,21,female,1,1,21,Ambigous_left,3,0,0,0,right,left,left,1,2,1,0.163,17,158,320,0.32,1.77,0,0,0,15,0
5e3974014e49b0000aea3d11,21,female,1,1,23,Ambigous_left,3,0,0,0,right,left,right,2,1,0,0.109,17,158,320,0.32,1.77,1,1,0,15,0
5e3974014e49b0000aea3d11,21,female,1,1,30,Ambigous_left,3,0,0,0,right,left,right,2,1,0,0.11800000000000001,17,158,320,0.32,1.77,1,1,0,15,0
5e3974014e49b0000aea3d11,21,female,1,1,34,Ambigous_left,3,0,0,0,right,left,right,2,1,0,0.192,17,158,320,0.32,1.77,1,1,0,15,0
5e3974014e49b0000aea3d11,21,female,1,1,36,Ambigous_left,3,0,0,0,right,left,right,2,1,0,0.47600000000000003,17,158,320,0.32,1.77,1,1,0,15,0
5e3974014e49b0000aea3d11,21,female,1,1,39,Ambigous_left,3,0,0,0,right,left,left,1,2,1,0.113,17,158,320,0.32,1.77,0,0,0,15,0
5e3974014e49b0000aea3d11,21,female,1,1,40,Ambigous_left,3,0,0,0,right,left,right,2,1,0,0.289,17,158,320,0.32,1.77,1,1,0,15,0
5e3974014e49b0000aea3d11,21,female,1,1,42,Ambigous_left,3,0,0,0,right,left,left,1,2,1,0.138,17,158,320,0.32,1.77,0,0,0,15,0
5e3974014e49b0000aea3d11,21,female,1,1,45,Ambigous_left,3,0,0,0,right,left,right,2,1,0,0.298,17,158,320,0.32,1.77,1,1,0,15,0
5e3974014e49b0000aea3d11,21,female,1,1,49,Ambigous_left,3,0,0,0,right,left,left,1,2,1,0.258,17,158,320,0.32,1.77,0,0,0,15,0
5e3974014e49b0000aea3d11,21,female,1,1,60,Ambigous_left,3,0,0,0,right,left,right,2,1,0,0.16,17,158,320,0.32,1.77,1,1,0,15,0
5e3974014e49b0000aea3d11,21,female,1,1,65,Ambigous_left,3,0,0,0,right,left,right,2,1,0,0.214,17,158,320,0.32,1.77,1,1,0,15,0
5e3974014e49b0000aea3d11,21,female,1,1,70,Ambigous_left,3,0,0,0,right,left,right,2,1,0,0.151,17,158,320,0.32,1.77,1,1,0,15,0
5e3974014e49b0000aea3d11,21,female,1,1,77,Ambigous_left,3,0,0,0,right,left,right,2,1,0,0.242,17,158,320,0.32,1.77,1,1,0,15,0
5e3974014e49b0000aea3d11,21,female,1,1,78,Ambigous_left,3,0,0,0,right,left,left,1,2,1,0.226,17,158,320,0.32,1.77,0,0,0,15,0
5e3974014e49b0000aea3d11,21,female,1,1,85,Ambigous_left,3,0,0,0,right,left,left,1,2,1,0.17800000000000002,17,158,320,0.32,1.77,0,0,0,15,0
5e3974014e49b0000aea3d11,21,female,1,1,88,Ambigous_left,3,0,0,0,right,left,left,1,2,1,0.14400000000000002,17,158,320,0.32,1.77,0,0,0,15,0
5e3974014e49b0000aea3d11,21,female,1,1,91,Ambigous_left,3,0,0,0,right,left,right,2,1,0,0.086,17,158,320,0.32,1.77,1,1,0,15,0
5e3974014e49b0000aea3d11,21,female,1,1,94,Ambigous_left,3,0,0,0,right,left,left,1,2,1,0.15,17,158,320,0.32,1.77,0,0,0,15,0
5e3974014e49b0000aea3d11,21,female,1,1,97,Ambigous_left,3,0,0,0,right,left,right,2,1,0,0.175,17,158,320,0.32,1.77,1,1,0,15,0
5e3974014e49b0000aea3d11,21,female,1,1,100,Ambigous_left,3,0,0,0,right,left,right,2,1,0,0.159,17,158,320,0.32,1.77,1,1,0,15,0
5e3974014e49b0000aea3d11,21,female,1,2,10,Ambigous_left,3,0,0,0,right,left,right,2,1,0,0.106,21,162,320,0.32,1.77,1,0,1,0,17
5e3974014e49b0000aea3d11,21,female,1,2,12,Ambigous_left,3,0,0,0,right,left,right,2,1,0,0.1,21,162,320,0.32,1.77,1,0,1,0,17
5e3974014e49b0000aea3d11,21,female,1,2,14,Ambigous_left,3,0,0,0,right,left,right,2,1,0,0.081,21,162,320,0.32,1.77,1,0,1,0,17
5e3974014e49b0000aea3d11,21,female,1,2,23,Ambigous_left,3,0,0,0,right,left,right,2,1,0,0.12300000000000001,21,162,320,0.32,1.77,1,0,1,0,17
5e3974014e49b0000aea3d11,21,female,1,2,25,Ambigous_left,3,0,0,0,right,left,right,2,1,0,0.135,21,162,320,0.32,1.77,1,0,1,0,17
5e3974014e49b0000aea3d11,21,female,1,2,27,Ambigous_left,3,0,0,0,right,left,right,2,1,0,0.20199999999999999,21,162,320,0.32,1.77,1,0,1,0,17
5e3974014e49b0000aea3d11,21,female,1,2,30,Ambigous_left,3,0,0,0,right,left,left,1,2,1,0.157,21,162,320,0.32,1.77,0,0,0,0,17
5e3974014e49b0000aea3d11,21,female,1,2,35,Ambigous_left,3,0,0,0,right,left,right,2,1,0,0.142,21,162,320,0.32,1.77,1,0,1,0,17
5e3974014e49b0000aea3d11,21,female,1,2,38,Ambigous_left,3,0,0,0,right,left,right,2,1,0,0.127,21,162,320,0.32,1.77,1,0,1,0,17
5e3974014e49b0000aea3d11,21,female,1,2,43,Ambigous_left,3,0,0,0,right,left,right,2,1,0,0.136,21,162,320,0.32,1.77,1,0,1,0,17
5e3974014e49b0000aea3d11,21,female,1,2,46,Ambigous_left,3,0,0,0,right,left,right,2,1,0,0.105,21,162,320,0.32,1.77,1,0,1,0,17
5e3974014e49b0000aea3d11,21,female,1,2,49,Ambigous_left,3,0,0,0,right,left,left,1,2,1,0.146,21,162,320,0.32,1.77,0,0,0,0,17
5e3974014e49b0000aea3d11,21,female,1,2,54,Ambigous_left,3,0,0,0,right,left,right,2,1,0,0.126,21,162,320,0.32,1.77,1,0,1,0,17
5e3974014e49b0000aea3d11,21,female,1,2,56,Ambigous_left,3,0,0,0,right,left,left,1,2,1,0.125,21,162,320,0.32,1.77,0,0,0,0,17
5e3974014e49b0000aea3d11,21,female,1,2,57,Ambigous_left,3,0,0,0,right,left,left,1,2,1,0.14,21,162,320,0.32,1.77,0,0,0,0,17
5e3974014e49b0000aea3d11,21,female,1,2,59,Ambigous_left,3,0,0,0,right,left,right,2,1,0,0.145,21,162,320,0.32,1.77,1,0,1,0,17
5e3974014e49b0000aea3d11,21,female,1,2,60,Ambigous_left,3,0,0,0,right,left,right,2,1,0,0.175,21,162,320,0.32,1.77,1,0,1,0,17
5e3974014e49b0000aea3d11,21,female,1,2,61,Ambigous_left,3,0,0,0,right,left,left,1,2,1,0.153,21,162,320,0.32,1.77,0,0,0,0,17
5e3974014e49b0000aea3d11,21,female,1,2,69,Ambigous_left,3,0,0,0,right,left,left,1,2,1,0.149,21,162,320,0.32,1.77,0,0,0,0,17
5e3974014e49b0000aea3d11,21,female,1,2,70,Ambigous_left,3,0,0,0,right,left,right,2,1,0,0.087,21,162,320,0.32,1.77,1,0,1,0,17
5e3974014e49b0000aea3d11,21,female,1,2,75,Ambigous_left,3,0,0,0,right,left,left,1,2,1,0.129,21,162,320,0.32,1.77,0,0,0,0,17
5e3974014e49b0000aea3d11,21,female,1,2,76,Ambigous_left,3,0,0,0,right,left,left,1,2,1,0.129,21,162,320,0.32,1.77,0,0,0,0,17
5e3974014e49b0000aea3d11,21,female,1,2,88,Ambigous_left,3,0,0,0,right,left,right,2,1,0,0.162,21,162,320,0.32,1.77,1,0,1,0,17
5e3974014e49b0000aea3d11,21,female,1,2,92,Ambigous_left,3,0,0,0,right,left,right,2,1,0,0.142,21,162,320,0.32,1.77,1,0,1,0,17
5e3974014e49b0000aea3d11,21,female,1,2,96,Ambigous_left,3,0,0,0,right,left,right,2,1,0,0.098,21,162,320,0.32,1.77,1,0,1,0,17
5e760b4d39c441170d9c9f1b,27,female,1,1,11,Ambigous_left,2,10,0,0,right,left,right,20,1,0,0.083,9,434,1313,1.3129999999999995,2.763,1,1,0,7,0
5e760b4d39c441170d9c9f1b,27,female,1,1,12,Ambigous_left,2,10,0,0,right,left,right,20,1,0,0.068,9,434,1313,1.3129999999999995,2.763,1,1,0,7,0
5e760b4d39c441170d9c9f1b,27,female,1,1,14,Ambigous_left,2,10,0,0,right,left,right,20,1,0,0.14400000000000002,9,434,1313,1.3129999999999995,2.763,1,1,0,7,0
5e760b4d39c441170d9c9f1b,27,female,1,1,17,Ambigous_left,2,10,0,0,right,left,right,20,1,0,0.086,9,434,1313,1.3129999999999995,2.763,1,1,0,7,0
5e760b4d39c441170d9c9f1b,27,female,1,1,25,Ambigous_left,2,10,1,180,right,left,left,1,-160,1,0.06,9,434,1313,1.3129999999999995,2.763,0,0,0,7,0
5e760b4d39c441170d9c9f1b,27,female,1,1,27,Ambigous_left,2,10,1,180,right,left,right,-160,-179,0,0.084,9,434,1313,1.3129999999999995,2.763,1,1,0,7,0
5e760b4d39c441170d9c9f1b,27,female,1,1,29,Ambigous_left,2,10,0,0,right,left,left,1,20,1,0.078,9,434,1313,1.3129999999999995,2.763,0,0,0,7,0
5e760b4d39c441170d9c9f1b,27,female,1,1,30,Ambigous_left,2,10,1,180,right,left,right,-160,-179,0,0.076,9,434,1313,1.3129999999999995,2.763,1,1,0,7,0
5e760b4d39c441170d9c9f1b,27,female,1,1,38,Ambigous_left,2,10,0,0,right,left,left,1,20,1,0.142,9,434,1313,1.3129999999999995,2.763,0,0,0,7,0
5e760b4d39c441170d9c9f1b,27,female,1,1,39,Ambigous_left,2,10,0,0,right,left,left,1,20,1,0.095,9,434,1313,1.3129999999999995,2.763,0,0,0,7,0
5e760b4d39c441170d9c9f1b,27,female,1,1,42,Ambigous_left,2,10,0,0,right,left,left,1,20,1,0.064,9,434,1313,1.3129999999999995,2.763,0,0,0,7,0
5e760b4d39c441170d9c9f1b,27,female,1,1,47,Ambigous_left,2,10,0,0,right,left,left,1,20,1,0.062,9,434,1313,1.3129999999999995,2.763,0,0,0,7,0
5e760b4d39c441170d9c9f1b,27,female,1,1,50,Ambigous_left,2,10,0,0,right,left,left,1,20,1,0.061,9,434,1313,1.3129999999999995,2.763,0,0,0,7,0
5e760b4d39c441170d9c9f1b,27,female,1,1,53,Ambigous_left,2,10,1,180,right,left,right,-160,-179,0,0.17300000000000001,9,434,1313,1.3129999999999995,2.763,1,1,0,7,0
5e760b4d39c441170d9c9f1b,27,female,1,1,60,Ambigous_left,2,10,0,0,right,left,left,1,20,1,0.06,9,434,1313,1.3129999999999995,2.763,0,0,0,7,0
5e760b4d39c441170d9c9f1b,27,female,1,1,61,Ambigous_left,2,10,0,0,right,left,left,1,20,1,0.064,9,434,1313,1.3129999999999995,2.763,0,0,0,7,0
5e760b4d39c441170d9c9f1b,27,female,1,1,67,Ambigous_left,2,10,0,0,right,left,left,1,20,1,0.069,9,434,1313,1.3129999999999995,2.763,0,0,0,7,0
5e760b4d39c441170d9c9f1b,27,female,1,1,71,Ambigous_left,2,10,0,0,right,left,left,1,20,1,0.122,9,434,1313,1.3129999999999995,2.763,0,0,0,7,0
5e760b4d39c441170d9c9f1b,27,female,1,1,75,Ambigous_left,2,10,0,0,right,left,left,1,20,1,0.052000000000000005,9,434,1313,1.3129999999999995,2.763,0,0,0,7,0
5e760b4d39c441170d9c9f1b,27,female,1,1,80,Ambigous_left,2,10,1,180,right,left,left,1,-160,1,0.064,9,434,1313,1.3129999999999995,2.763,0,0,0,7,0
5e760b4d39c441170d9c9f1b,27,female,1,1,82,Ambigous_left,2,10,0,0,right,left,left,1,20,1,0.057,9,434,1313,1.3129999999999995,2.763,0,0,0,7,0
5e760b4d39c441170d9c9f1b,27,female,1,1,83,Ambigous_left,2,10,0,0,right,left,left,1,20,1,0.06,9,434,1313,1.3129999999999995,2.763,0,0,0,7,0
5e760b4d39c441170d9c9f1b,27,female,1,1,88,Ambigous_left,2,10,0,0,right,left,left,1,20,1,0.079,9,434,1313,1.3129999999999995,2.763,0,0,0,7,0
5e760b4d39c441170d9c9f1b,27,female,1,1,94,Ambigous_left,2,10,1,180,right,left,left,1,-160,1,0.071,9,434,1313,1.3129999999999995,2.763,0,0,0,7,0
5e760b4d39c441170d9c9f1b,27,female,1,1,99,Ambigous_left,2,10,0,0,right,left,left,1,20,1,0.076,9,434,1313,1.3129999999999995,2.763,0,0,0,7,0
5e760b4d39c441170d9c9f1b,27,female,1,2,1,Ambigous_left,2,10,0,0,right,left,left,1,20,1,0.095,6,879,1313,1.3129999999999995,2.763,0,0,0,0,3
5e760b4d39c441170d9c9f1b,27,female,1,2,7,Ambigous_left,2,10,0,0,right,left,left,1,20,1,0.055999999999999994,6,879,1313,1.3129999999999995,2.763,0,0,0,0,3
5e760b4d39c441170d9c9f1b,27,female,1,2,8,Ambigous_left,2,10,0,0,right,left,left,1,20,1,0.059000000000000004,6,879,1313,1.3129999999999995,2.763,0,0,0,0,3
5e760b4d39c441170d9c9f1b,27,female,1,2,11,Ambigous_left,2,10,0,0,right,left,left,1,20,1,0.055,6,879,1313,1.3129999999999995,2.763,0,0,0,0,3
5e760b4d39c441170d9c9f1b,27,female,1,2,15,Ambigous_left,2,10,1,180,right,left,left,1,-160,1,0.055,6,879,1313,1.3129999999999995,2.763,0,0,0,0,3
5e760b4d39c441170d9c9f1b,27,female,1,2,16,Ambigous_left,2,10,0,0,right,left,left,1,20,1,0.057999999999999996,6,879,1313,1.3129999999999995,2.763,0,0,0,0,3
5e760b4d39c441170d9c9f1b,27,female,1,2,20,Ambigous_left,2,10,0,0,right,left,right,20,1,0,0.188,6,879,1313,1.3129999999999995,2.763,1,0,1,0,3
5e760b4d39c441170d9c9f1b,27,female,1,2,27,Ambigous_left,2,10,0,0,right,left,left,1,20,1,0.061,6,879,1313,1.3129999999999995,2.763,0,0,0,0,3
5e760b4d39c441170d9c9f1b,27,female,1,2,31,Ambigous_left,2,10,0,0,right,left,left,1,20,1,0.095,6,879,1313,1.3129999999999995,2.763,0,0,0,0,3
5e760b4d39c441170d9c9f1b,27,female,1,2,32,Ambigous_left,2,10,0,0,right,left,left,1,20,1,0.06,6,879,1313,1.3129999999999995,2.763,0,0,0,0,3
5e760b4d39c441170d9c9f1b,27,female,1,2,38,Ambigous_left,2,10,0,0,right,left,left,1,20,1,0.07200000000000001,6,879,1313,1.3129999999999995,2.763,0,0,0,0,3
5e760b4d39c441170d9c9f1b,27,female,1,2,45,Ambigous_left,2,10,0,0,right,left,left,1,20,1,0.045,6,879,1313,1.3129999999999995,2.763,0,0,0,0,3
5e760b4d39c441170d9c9f1b,27,female,1,2,48,Ambigous_left,2,10,0,0,right,left,left,1,20,1,0.062,6,879,1313,1.3129999999999995,2.763,0,0,0,0,3
5e760b4d39c441170d9c9f1b,27,female,1,2,51,Ambigous_left,2,10,0,0,right,left,right,20,1,0,0.057999999999999996,6,879,1313,1.3129999999999995,2.763,1,0,1,0,3
5e760b4d39c441170d9c9f1b,27,female,1,2,54,Ambigous_left,2,10,0,0,right,left,left,1,20,1,0.062,6,879,1313,1.3129999999999995,2.763,0,0,0,0,3
5e760b4d39c441170d9c9f1b,27,female,1,2,60,Ambigous_left,2,10,0,0,right,left,left,1,20,1,0.068,6,879,1313,1.3129999999999995,2.763,0,0,0,0,3
5e760b4d39c441170d9c9f1b,27,female,1,2,64,Ambigous_left,2,10,0,0,right,left,left,1,20,1,0.063,6,879,1313,1.3129999999999995,2.763,0,0,0,0,3
5e760b4d39c441170d9c9f1b,27,female,1,2,71,Ambigous_left,2,10,0,0,right,left,left,1,20,1,0.064,6,879,1313,1.3129999999999995,2.763,0,0,0,0,3
5e760b4d39c441170d9c9f1b,27,female,1,2,74,Ambigous_left,2,10,0,0,right,left,left,1,20,1,0.067,6,879,1313,1.3129999999999995,2.763,0,0,0,0,3
5e760b4d39c441170d9c9f1b,27,female,1,2,79,Ambigous_left,2,10,0,0,right,left,left,1,20,1,0.079,6,879,1313,1.3129999999999995,2.763,0,0,0,0,3
5e760b4d39c441170d9c9f1b,27,female,1,2,84,Ambigous_left,2,10,0,0,right,left,left,1,20,1,0.047,6,879,1313,1.3129999999999995,2.763,0,0,0,0,3
5e760b4d39c441170d9c9f1b,27,female,1,2,90,Ambigous_left,2,10,0,0,right,left,left,1,20,1,0.059000000000000004,6,879,1313,1.3129999999999995,2.763,0,0,0,0,3
5e760b4d39c441170d9c9f1b,27,female,1,2,94,Ambigous_left,2,10,0,0,right,left,left,1,20,1,0.059000000000000004,6,879,1313,1.3129999999999995,2.763,0,0,0,0,3
5e760b4d39c441170d9c9f1b,27,female,1,2,96,Ambigous_left,2,10,0,0,right,left,right,20,1,0,0.091,6,879,1313,1.3129999999999995,2.763,1,0,1,0,3
5e760b4d39c441170d9c9f1b,27,female,1,2,97,Ambigous_left,2,10,0,0,right,left,left,1,20,1,0.063,6,879,1313,1.3129999999999995,2.763,0,0,0,0,3
5e91d94b473d044febfef650,18,male,1,1,11,Ambigous_right,3,0,0,0,left,right,left,2,1,0,0.452,19,150,291,0.29100000000000004,1.741,1,1,0,6,0
5e91d94b473d044febfef650,18,male,1,1,22,Ambigous_right,3,0,0,0,left,right,left,2,1,0,0.272,19,150,291,0.29100000000000004,1.741,1,1,0,6,0
5e91d94b473d044febfef650,18,male,1,1,23,Ambigous_right,3,0,0,0,left,right,right,1,2,1,0.18899999999999997,19,150,291,0.29100000000000004,1.741,0,0,0,6,0
5e91d94b473d044febfef650,18,male,1,1,27,Ambigous_right,3,0,0,0,left,right,right,1,2,1,0.17300000000000001,19,150,291,0.29100000000000004,1.741,0,0,0,6,0
5e91d94b473d044febfef650,18,male,1,1,36,Ambigous_right,3,0,0,0,left,right,left,2,1,0,0.157,19,150,291,0.29100000000000004,1.741,1,1,0,6,0
5e91d94b473d044febfef650,18,male,1,1,37,Ambigous_right,3,0,0,0,left,right,left,2,1,0,0.23399999999999999,19,150,291,0.29100000000000004,1.741,1,1,0,6,0
5e91d94b473d044febfef650,18,male,1,1,41,Ambigous_right,3,0,0,0,left,right,right,1,2,1,0.28,19,150,291,0.29100000000000004,1.741,0,0,0,6,0
5e91d94b473d044febfef650,18,male,1,1,46,Ambigous_right,3,0,0,0,left,right,right,1,2,1,0.142,19,150,291,0.29100000000000004,1.741,0,0,0,6,0
5e91d94b473d044febfef650,18,male,1,1,56,Ambigous_right,3,0,0,0,left,right,right,1,2,1,0.162,19,150,291,0.29100000000000004,1.741,0,0,0,6,0
5e91d94b473d044febfef650,18,male,1,1,57,Ambigous_right,3,0,0,0,left,right,left,2,1,0,0.134,19,150,291,0.29100000000000004,1.741,1,1,0,6,0
5e91d94b473d044febfef650,18,male,1,1,64,Ambigous_right,3,0,0,0,left,right,right,1,2,1,0.111,19,150,291,0.29100000000000004,1.741,0,0,0,6,0
5e91d94b473d044febfef650,18,male,1,1,68,Ambigous_right,3,0,0,0,left,right,left,2,1,0,0.121,19,150,291,0.29100000000000004,1.741,1,1,0,6,0
5e91d94b473d044febfef650,18,male,1,1,69,Ambigous_right,3,0,0,0,left,right,right,1,2,1,0.183,19,150,291,0.29100000000000004,1.741,0,0,0,6,0
5e91d94b473d044febfef650,18,male,1,1,75,Ambigous_right,3,0,0,0,left,right,right,1,2,1,0.114,19,150,291,0.29100000000000004,1.741,0,0,0,6,0
5e91d94b473d044febfef650,18,male,1,1,77,Ambigous_right,3,0,0,0,left,right,right,1,2,1,0.195,19,150,291,0.29100000000000004,1.741,0,0,0,6,0
5e91d94b473d044febfef650,18,male,1,1,81,Ambigous_right,3,0,0,0,left,right,right,1,2,1,0.109,19,150,291,0.29100000000000004,1.741,0,0,0,6,0
5e91d94b473d044febfef650,18,male,1,1,82,Ambigous_right,3,0,0,0,left,right,right,1,2,1,0.423,19,150,291,0.29100000000000004,1.741,0,0,0,6,0
5e91d94b473d044febfef650,18,male,1,1,84,Ambigous_right,3,0,0,0,left,right,right,1,2,1,0.134,19,150,291,0.29100000000000004,1.741,0,0,0,6,0
5e91d94b473d044febfef650,18,male,1,1,87,Ambigous_right,3,0,0,0,left,right,right,1,2,1,0.21100000000000002,19,150,291,0.29100000000000004,1.741,0,0,0,6,0
5e91d94b473d044febfef650,18,male,1,1,88,Ambigous_right,3,0,0,0,left,right,right,1,2,1,0.244,19,150,291,0.29100000000000004,1.741,0,0,0,6,0
5e91d94b473d044febfef650,18,male,1,1,92,Ambigous_right,3,0,0,0,left,right,right,1,2,1,0.233,19,150,291,0.29100000000000004,1.741,0,0,0,6,0
5e91d94b473d044febfef650,18,male,1,1,95,Ambigous_right,3,0,0,0,left,right,right,1,2,1,0.141,19,150,291,0.29100000000000004,1.741,0,0,0,6,0
5e91d94b473d044febfef650,18,male,1,1,97,Ambigous_right,3,0,0,0,left,right,right,1,2,1,0.121,19,150,291,0.29100000000000004,1.741,0,0,0,6,0
5e91d94b473d044febfef650,18,male,1,1,99,Ambigous_right,3,0,0,0,left,right,right,1,2,1,0.14800000000000002,19,150,291,0.29100000000000004,1.741,0,0,0,6,0
5e91d94b473d044febfef650,18,male,1,1,100,Ambigous_right,3,0,0,0,left,right,right,1,2,1,0.212,19,150,291,0.29100000000000004,1.741,0,0,0,6,0
5e91d94b473d044febfef650,18,male,1,2,2,Ambigous_right,3,0,0,0,left,right,right,1,2,1,0.171,12,141,291,0.29100000000000004,1.741,0,0,0,0,6
5e91d94b473d044febfef650,18,male,1,2,5,Ambigous_right,3,0,0,0,left,right,right,1,2,1,0.113,12,141,291,0.29100000000000004,1.741,0,0,0,0,6
5e91d94b473d044febfef650,18,male,1,2,11,Ambigous_right,3,0,0,0,left,right,right,1,2,1,0.121,12,141,291,0.29100000000000004,1.741,0,0,0,0,6
5e91d94b473d044febfef650,18,male,1,2,23,Ambigous_right,3,0,0,0,left,right,left,2,1,0,0.183,12,141,291,0.29100000000000004,1.741,1,0,1,0,6
5e91d94b473d044febfef650,18,male,1,2,25,Ambigous_right,3,0,0,0,left,right,right,1,2,1,0.242,12,141,291,0.29100000000000004,1.741,0,0,0,0,6
5e91d94b473d044febfef650,18,male,1,2,30,Ambigous_right,3,0,0,0,left,right,right,1,2,1,0.141,12,141,291,0.29100000000000004,1.741,0,0,0,0,6
5e91d94b473d044febfef650,18,male,1,2,32,Ambigous_right,3,0,0,0,left,right,right,1,2,1,0.158,12,141,291,0.29100000000000004,1.741,0,0,0,0,6
5e91d94b473d044febfef650,18,male,1,2,33,Ambigous_right,3,0,0,0,left,right,right,1,2,1,0.13,12,141,291,0.29100000000000004,1.741,0,0,0,0,6
5e91d94b473d044febfef650,18,male,1,2,35,Ambigous_right,3,0,0,0,left,right,right,1,2,1,0.141,12,141,291,0.29100000000000004,1.741,0,0,0,0,6
5e91d94b473d044febfef650,18,male,1,2,36,Ambigous_right,3,0,0,0,left,right,left,2,1,0,0.16699999999999998,12,141,291,0.29100000000000004,1.741,1,0,1,0,6
5e91d94b473d044febfef650,18,male,1,2,38,Ambigous_right,3,0,0,0,left,right,right,1,2,1,0.127,12,141,291,0.29100000000000004,1.741,0,0,0,0,6
5e91d94b473d044febfef650,18,male,1,2,44,Ambigous_right,3,0,0,0,left,right,right,1,2,1,0.11699999999999999,12,141,291,0.29100000000000004,1.741,0,0,0,0,6
5e91d94b473d044febfef650,18,male,1,2,45,Ambigous_right,3,0,0,0,left,right,left,2,1,0,0.147,12,141,291,0.29100000000000004,1.741,1,0,1,0,6
5e91d94b473d044febfef650,18,male,1,2,46,Ambigous_right,3,0,0,0,left,right,right,1,2,1,0.106,12,141,291,0.29100000000000004,1.741,0,0,0,0,6
5e91d94b473d044febfef650,18,male,1,2,52,Ambigous_right,3,0,0,0,left,right,right,1,2,1,0.247,12,141,291,0.29100000000000004,1.741,0,0,0,0,6
5e91d94b473d044febfef650,18,male,1,2,62,Ambigous_right,3,0,0,0,left,right,right,1,2,1,0.155,12,141,291,0.29100000000000004,1.741,0,0,0,0,6
5e91d94b473d044febfef650,18,male,1,2,63,Ambigous_right,3,0,0,0,left,right,right,1,2,1,0.111,12,141,291,0.29100000000000004,1.741,0,0,0,0,6
5e91d94b473d044febfef650,18,male,1,2,65,Ambigous_right,3,0,0,0,left,right,left,2,1,0,0.134,12,141,291,0.29100000000000004,1.741,1,0,1,0,6
5e91d94b473d044febfef650,18,male,1,2,68,Ambigous_right,3,0,0,0,left,right,right,1,2,1,0.09699999999999999,12,141,291,0.29100000000000004,1.741,0,0,0,0,6
5e91d94b473d044febfef650,18,male,1,2,70,Ambigous_right,3,0,0,0,left,right,right,1,2,1,0.11199999999999999,12,141,291,0.29100000000000004,1.741,0,0,0,0,6
5e91d94b473d044febfef650,18,male,1,2,71,Ambigous_right,3,0,0,0,left,right,left,2,1,0,0.13699999999999998,12,141,291,0.29100000000000004,1.741,1,0,1,0,6
5e91d94b473d044febfef650,18,male,1,2,77,Ambigous_right,3,0,0,0,left,right,right,1,2,1,0.35200000000000004,12,141,291,0.29100000000000004,1.741,0,0,0,0,6
5e91d94b473d044febfef650,18,male,1,2,83,Ambigous_right,3,0,0,0,left,right,right,1,2,1,0.252,12,141,291,0.29100000000000004,1.741,0,0,0,0,6
5e91d94b473d044febfef650,18,male,1,2,93,Ambigous_right,3,0,0,0,left,right,left,2,1,0,0.17,12,141,291,0.29100000000000004,1.741,1,0,1,0,6
5e91d94b473d044febfef650,18,male,1,2,97,Ambigous_right,3,0,0,0,left,right,right,1,2,1,0.149,12,141,291,0.29100000000000004,1.741,0,0,0,0,6
5eae4c54e1015a50baf832cb,26,female,0,1,2,Ambigous_right,1,90,1,20,left,right,right,1,0,1,0.27399999999999997,14,771,1561,1.561,3.011,0,0,0,7,0
5eae4c54e1015a50baf832cb,26,female,0,1,3,Ambigous_right,1,90,1,20,left,right,left,0,-19,0,0.306,14,771,1561,1.561,3.011,1,1,0,7,0
5eae4c54e1015a50baf832cb,26,female,0,1,11,Ambigous_right,1,90,1,20,left,right,right,1,0,1,0.308,14,771,1561,1.561,3.011,0,0,0,7,0
5eae4c54e1015a50baf832cb,26,female,0,1,12,Ambigous_right,1,90,1,20,left,right,right,1,0,1,0.23399999999999999,14,771,1561,1.561,3.011,0,0,0,7,0
5eae4c54e1015a50baf832cb,26,female,0,1,13,Ambigous_right,1,90,1,20,left,right,right,1,0,1,0.268,14,771,1561,1.561,3.011,0,0,0,7,0
5eae4c54e1015a50baf832cb,26,female,0,1,14,Ambigous_right,1,90,1,20,left,right,right,1,0,1,0.21899999999999997,14,771,1561,1.561,3.011,0,0,0,7,0
5eae4c54e1015a50baf832cb,26,female,0,1,15,Ambigous_right,1,90,1,20,left,right,right,1,0,1,0.21600000000000005,14,771,1561,1.561,3.011,0,0,0,7,0
5eae4c54e1015a50baf832cb,26,female,0,1,22,Ambigous_right,1,90,1,20,left,right,left,0,-19,0,0.3,14,771,1561,1.561,3.011,1,1,0,7,0
5eae4c54e1015a50baf832cb,26,female,0,1,24,Ambigous_right,1,90,1,20,left,right,left,0,-19,0,0.317,14,771,1561,1.561,3.011,1,1,0,7,0
5eae4c54e1015a50baf832cb,26,female,0,1,25,Ambigous_right,1,90,1,20,left,right,right,1,0,1,0.28800000000000003,14,771,1561,1.561,3.011,0,0,0,7,0
5eae4c54e1015a50baf832cb,26,female,0,1,26,Ambigous_right,1,90,1,20,left,right,right,1,0,1,0.218,14,771,1561,1.561,3.011,0,0,0,7,0
5eae4c54e1015a50baf832cb,26,female,0,1,28,Ambigous_right,1,90,1,20,left,right,left,0,-19,0,0.185,14,771,1561,1.561,3.011,1,1,0,7,0
5eae4c54e1015a50baf832cb,26,female,0,1,39,Ambigous_right,1,90,1,20,left,right,right,1,0,1,0.304,14,771,1561,1.561,3.011,0,0,0,7,0
5eae4c54e1015a50baf832cb,26,female,0,1,40,Ambigous_right,1,90,1,20,left,right,right,1,0,1,0.17600000000000002,14,771,1561,1.561,3.011,0,0,0,7,0
5eae4c54e1015a50baf832cb,26,female,0,1,41,Ambigous_right,1,90,1,20,left,right,right,1,0,1,0.14400000000000002,14,771,1561,1.561,3.011,0,0,0,7,0
5eae4c54e1015a50baf832cb,26,female,0,1,43,Ambigous_right,1,90,1,20,left,right,right,1,0,1,0.35100000000000003,14,771,1561,1.561,3.011,0,0,0,7,0
5eae4c54e1015a50baf832cb,26,female,0,1,51,Ambigous_right,1,90,1,20,left,right,left,0,-19,0,0.222,14,771,1561,1.561,3.011,1,1,0,7,0
5eae4c54e1015a50baf832cb,26,female,0,1,55,Ambigous_right,1,90,1,20,left,right,right,1,0,1,0.21100000000000002,14,771,1561,1.561,3.011,0,0,0,7,0
5eae4c54e1015a50baf832cb,26,female,0,1,61,Ambigous_right,1,90,1,20,left,right,left,0,-19,0,0.183,14,771,1561,1.561,3.011,1,1,0,7,0
5eae4c54e1015a50baf832cb,26,female,0,1,69,Ambigous_right,1,90,1,20,left,right,right,1,0,1,0.19,14,771,1561,1.561,3.011,0,0,0,7,0
5eae4c54e1015a50baf832cb,26,female,0,1,83,Ambigous_right,1,90,1,20,left,right,right,1,0,1,0.212,14,771,1561,1.561,3.011,0,0,0,7,0
5eae4c54e1015a50baf832cb,26,female,0,1,84,Ambigous_right,1,90,0,0,left,right,left,20,1,0,0.275,14,771,1561,1.561,3.011,1,1,0,7,0
5eae4c54e1015a50baf832cb,26,female,0,1,90,Ambigous_right,1,90,1,20,left,right,right,1,0,1,0.413,14,771,1561,1.561,3.011,0,0,0,7,0
5eae4c54e1015a50baf832cb,26,female,0,1,91,Ambigous_right,1,90,1,20,left,right,right,1,0,1,0.215,14,771,1561,1.561,3.011,0,0,0,7,0
5eae4c54e1015a50baf832cb,26,female,0,1,92,Ambigous_right,1,90,1,20,left,right,right,1,0,1,0.157,14,771,1561,1.561,3.011,0,0,0,7,0
5eae4c54e1015a50baf832cb,26,female,0,2,5,Ambigous_right,1,90,1,20,left,right,right,1,0,1,0.177,15,790,1561,1.561,3.011,0,0,0,0,10
5eae4c54e1015a50baf832cb,26,female,0,2,6,Ambigous_right,1,90,1,20,left,right,left,0,-19,0,0.221,15,790,1561,1.561,3.011,1,0,1,0,10
5eae4c54e1015a50baf832cb,26,female,0,2,7,Ambigous_right,1,90,1,20,left,right,right,1,0,1,0.231,15,790,1561,1.561,3.011,0,0,0,0,10
5eae4c54e1015a50baf832cb,26,female,0,2,23,Ambigous_right,1,90,1,20,left,right,left,0,-19,0,0.18100000000000002,15,790,1561,1.561,3.011,1,0,1,0,10
5eae4c54e1015a50baf832cb,26,female,0,2,28,Ambigous_right,1,90,1,20,left,right,left,0,-19,0,0.14300000000000002,15,790,1561,1.561,3.011,1,0,1,0,10
5eae4c54e1015a50baf832cb,26,female,0,2,37,Ambigous_right,1,90,1,20,left,right,left,0,-19,0,0.5760000000000001,15,790,1561,1.561,3.011,1,0,1,0,10
5eae4c54e1015a50baf832cb,26,female,0,2,38,Ambigous_right,1,90,1,20,left,right,right,1,0,1,0.262,15,790,1561,1.561,3.011,0,0,0,0,10
5eae4c54e1015a50baf832cb,26,female,0,2,39,Ambigous_right,1,90,0,0,left,right,right,1,20,1,0.183,15,790,1561,1.561,3.011,0,0,0,0,10
5eae4c54e1015a50baf832cb,26,female,0,2,46,Ambigous_right,1,90,0,0,left,right,left,20,1,0,0.22,15,790,1561,1.561,3.011,1,0,1,0,10
5eae4c54e1015a50baf832cb,26,female,0,2,57,Ambigous_right,1,90,1,20,left,right,left,0,-19,0,0.168,15,790,1561,1.561,3.011,1,0,1,0,10
5eae4c54e1015a50baf832cb,26,female,0,2,58,Ambigous_right,1,90,1,20,left,right,right,1,0,1,0.193,15,790,1561,1.561,3.011,0,0,0,0,10
5eae4c54e1015a50baf832cb,26,female,0,2,62,Ambigous_right,1,90,1,20,left,right,left,0,-19,0,0.165,15,790,1561,1.561,3.011,1,0,1,0,10
5eae4c54e1015a50baf832cb,26,female,0,2,70,Ambigous_right,1,90,1,20,left,right,right,1,0,1,0.171,15,790,1561,1.561,3.011,0,0,0,0,10
5eae4c54e1015a50baf832cb,26,female,0,2,75,Ambigous_right,1,90,1,20,left,right,right,1,0,1,0.23199999999999998,15,790,1561,1.561,3.011,0,0,0,0,10
5eae4c54e1015a50baf832cb,26,female,0,2,76,Ambigous_right,1,90,1,20,left,right,left,0,-19,0,0.21899999999999997,15,790,1561,1.561,3.011,1,0,1,0,10
5eae4c54e1015a50baf832cb,26,female,0,2,80,Ambigous_right,1,90,1,20,left,right,right,1,0,1,0.198,15,790,1561,1.561,3.011,0,0,0,0,10
5eae4c54e1015a50baf832cb,26,female,0,2,82,Ambigous_right,1,90,1,20,left,right,left,0,-19,0,0.3,15,790,1561,1.561,3.011,1,0,1,0,10
5eae4c54e1015a50baf832cb,26,female,0,2,84,Ambigous_right,1,90,1,20,left,right,left,0,-19,0,0.20600000000000002,15,790,1561,1.561,3.011,1,0,1,0,10
5eae4c54e1015a50baf832cb,26,female,0,2,86,Ambigous_right,1,90,1,20,left,right,right,1,0,1,0.159,15,790,1561,1.561,3.011,0,0,0,0,10
5eae4c54e1015a50baf832cb,26,female,0,2,88,Ambigous_right,1,90,1,20,left,right,right,1,0,1,0.18,15,790,1561,1.561,3.011,0,0,0,0,10
5eae4c54e1015a50baf832cb,26,female,0,2,89,Ambigous_right,1,90,1,20,left,right,right,1,0,1,0.175,15,790,1561,1.561,3.011,0,0,0,0,10
5eae4c54e1015a50baf832cb,26,female,0,2,94,Ambigous_right,1,90,1,20,left,right,right,1,0,1,0.18100000000000002,15,790,1561,1.561,3.011,0,0,0,0,10
5eae4c54e1015a50baf832cb,26,female,0,2,95,Ambigous_right,1,90,1,20,left,right,right,1,0,1,0.203,15,790,1561,1.561,3.011,0,0,0,0,10
5eae4c54e1015a50baf832cb,26,female,0,2,96,Ambigous_right,1,90,1,20,left,right,right,1,0,1,0.23600000000000002,15,790,1561,1.561,3.011,0,0,0,0,10
5eae4c54e1015a50baf832cb,26,female,0,2,97,Ambigous_right,1,90,1,20,left,right,right,1,0,1,0.215,15,790,1561,1.561,3.011,0,0,0,0,10
5ecc3b8a119a5e800ca47d80,20,female,0,1,4,Ambigous_left,1,90,1,20,right,left,left,1,0,1,0.257,19,632,1344,1.344,2.7939999999999996,0,0,0,9,0
5ecc3b8a119a5e800ca47d80,20,female,0,1,6,Ambigous_left,1,90,1,20,right,left,right,0,-19,0,0.175,19,632,1344,1.344,2.7939999999999996,1,1,0,9,0
5ecc3b8a119a5e800ca47d80,20,female,0,1,7,Ambigous_left,1,90,1,20,right,left,left,1,0,1,0.245,19,632,1344,1.344,2.7939999999999996,0,0,0,9,0
5ecc3b8a119a5e800ca47d80,20,female,0,1,9,Ambigous_left,1,90,1,20,right,left,left,1,0,1,0.214,19,632,1344,1.344,2.7939999999999996,0,0,0,9,0
5ecc3b8a119a5e800ca47d80,20,female,0,1,10,Ambigous_left,1,90,1,20,right,left,left,1,0,1,0.25,19,632,1344,1.344,2.7939999999999996,0,0,0,9,0
5ecc3b8a119a5e800ca47d80,20,female,0,1,14,Ambigous_left,1,90,1,20,right,left,left,1,0,1,0.185,19,632,1344,1.344,2.7939999999999996,0,0,0,9,0
5ecc3b8a119a5e800ca47d80,20,female,0,1,15,Ambigous_left,1,90,1,20,right,left,left,1,0,1,0.16399999999999998,19,632,1344,1.344,2.7939999999999996,0,0,0,9,0
5ecc3b8a119a5e800ca47d80,20,female,0,1,23,Ambigous_left,1,90,1,20,right,left,left,1,0,1,0.175,19,632,1344,1.344,2.7939999999999996,0,0,0,9,0
5ecc3b8a119a5e800ca47d80,20,female,0,1,24,Ambigous_left,1,90,1,20,right,left,right,0,-19,0,0.107,19,632,1344,1.344,2.7939999999999996,1,1,0,9,0
5ecc3b8a119a5e800ca47d80,20,female,0,1,31,Ambigous_left,1,90,1,20,right,left,right,0,-19,0,0.126,19,632,1344,1.344,2.7939999999999996,1,1,0,9,0
5ecc3b8a119a5e800ca47d80,20,female,0,1,44,Ambigous_left,1,90,1,20,right,left,left,1,0,1,0.141,19,632,1344,1.344,2.7939999999999996,0,0,0,9,0
5ecc3b8a119a5e800ca47d80,20,female,0,1,47,Ambigous_left,1,90,1,20,right,left,right,0,-19,0,0.2,19,632,1344,1.344,2.7939999999999996,1,1,0,9,0
5ecc3b8a119a5e800ca47d80,20,female,0,1,49,Ambigous_left,1,90,1,20,right,left,left,1,0,1,0.327,19,632,1344,1.344,2.7939999999999996,0,0,0,9,0
5ecc3b8a119a5e800ca47d80,20,female,0,1,62,Ambigous_left,1,90,1,20,right,left,right,0,-19,0,0.20199999999999999,19,632,1344,1.344,2.7939999999999996,1,1,0,9,0
5ecc3b8a119a5e800ca47d80,20,female,0,1,64,Ambigous_left,1,90,1,20,right,left,left,1,0,1,0.098,19,632,1344,1.344,2.7939999999999996,0,0,0,9,0
5ecc3b8a119a5e800ca47d80,20,female,0,1,65,Ambigous_left,1,90,1,20,right,left,left,1,0,1,0.102,19,632,1344,1.344,2.7939999999999996,0,0,0,9,0
5ecc3b8a119a5e800ca47d80,20,female,0,1,66,Ambigous_left,1,90,1,20,right,left,right,0,-19,0,0.131,19,632,1344,1.344,2.7939999999999996,1,1,0,9,0
5ecc3b8a119a5e800ca47d80,20,female,0,1,69,Ambigous_left,1,90,1,20,right,left,left,1,0,1,0.162,19,632,1344,1.344,2.7939999999999996,0,0,0,9,0
5ecc3b8a119a5e800ca47d80,20,female,0,1,71,Ambigous_left,1,90,1,20,right,left,left,1,0,1,0.136,19,632,1344,1.344,2.7939999999999996,0,0,0,9,0
5ecc3b8a119a5e800ca47d80,20,female,0,1,73,Ambigous_left,1,90,1,20,right,left,left,1,0,1,0.23,19,632,1344,1.344,2.7939999999999996,0,0,0,9,0
5ecc3b8a119a5e800ca47d80,20,female,0,1,79,Ambigous_left,1,90,1,20,right,left,right,0,-19,0,0.11800000000000001,19,632,1344,1.344,2.7939999999999996,1,1,0,9,0
5ecc3b8a119a5e800ca47d80,20,female,0,1,82,Ambigous_left,1,90,1,20,right,left,right,0,-19,0,0.172,19,632,1344,1.344,2.7939999999999996,1,1,0,9,0
5ecc3b8a119a5e800ca47d80,20,female,0,1,86,Ambigous_left,1,90,1,20,right,left,right,0,-19,0,0.115,19,632,1344,1.344,2.7939999999999996,1,1,0,9,0
5ecc3b8a119a5e800ca47d80,20,female,0,1,95,Ambigous_left,1,90,0,0,right,left,left,1,20,1,0.158,19,632,1344,1.344,2.7939999999999996,0,0,0,9,0
5ecc3b8a119a5e800ca47d80,20,female,0,1,98,Ambigous_left,1,90,1,20,right,left,left,1,0,1,0.106,19,632,1344,1.344,2.7939999999999996,0,0,0,9,0
5ecc3b8a119a5e800ca47d80,20,female,0,2,4,Ambigous_left,1,90,1,20,right,left,left,1,0,1,0.177,17,712,1344,1.344,2.7939999999999996,0,0,0,0,8
5ecc3b8a119a5e800ca47d80,20,female,0,2,13,Ambigous_left,1,90,1,20,right,left,left,1,0,1,0.13,17,712,1344,1.344,2.7939999999999996,0,0,0,0,8
5ecc3b8a119a5e800ca47d80,20,female,0,2,15,Ambigous_left,1,90,1,20,right,left,left,1,0,1,0.124,17,712,1344,1.344,2.7939999999999996,0,0,0,0,8
5ecc3b8a119a5e800ca47d80,20,female,0,2,17,Ambigous_left,1,90,1,20,right,left,right,0,-19,0,0.138,17,712,1344,1.344,2.7939999999999996,1,0,1,0,8
5ecc3b8a119a5e800ca47d80,20,female,0,2,25,Ambigous_left,1,90,1,20,right,left,left,1,0,1,0.135,17,712,1344,1.344,2.7939999999999996,0,0,0,0,8
5ecc3b8a119a5e800ca47d80,20,female,0,2,33,Ambigous_left,1,90,1,20,right,left,left,1,0,1,0.13699999999999998,17,712,1344,1.344,2.7939999999999996,0,0,0,0,8
5ecc3b8a119a5e800ca47d80,20,female,0,2,34,Ambigous_left,1,90,1,20,right,left,right,0,-19,0,0.11199999999999999,17,712,1344,1.344,2.7939999999999996,1,0,1,0,8
5ecc3b8a119a5e800ca47d80,20,female,0,2,35,Ambigous_left,1,90,1,20,right,left,left,1,0,1,0.243,17,712,1344,1.344,2.7939999999999996,0,0,0,0,8
5ecc3b8a119a5e800ca47d80,20,female,0,2,38,Ambigous_left,1,90,1,20,right,left,right,0,-19,0,0.09,17,712,1344,1.344,2.7939999999999996,1,0,1,0,8
5ecc3b8a119a5e800ca47d80,20,female,0,2,46,Ambigous_left,1,90,1,20,right,left,right,0,-19,0,0.27,17,712,1344,1.344,2.7939999999999996,1,0,1,0,8
5ecc3b8a119a5e800ca47d80,20,female,0,2,47,Ambigous_left,1,90,1,20,right,left,right,0,-19,0,0.272,17,712,1344,1.344,2.7939999999999996,1,0,1,0,8
5ecc3b8a119a5e800ca47d80,20,female,0,2,48,Ambigous_left,1,90,1,20,right,left,left,1,0,1,0.139,17,712,1344,1.344,2.7939999999999996,0,0,0,0,8
5ecc3b8a119a5e800ca47d80,20,female,0,2,57,Ambigous_left,1,90,1,20,right,left,left,1,0,1,0.16399999999999998,17,712,1344,1.344,2.7939999999999996,0,0,0,0,8
5ecc3b8a119a5e800ca47d80,20,female,0,2,58,Ambigous_left,1,90,1,20,right,left,right,0,-19,0,0.129,17,712,1344,1.344,2.7939999999999996,1,0,1,0,8
5ecc3b8a119a5e800ca47d80,20,female,0,2,59,Ambigous_left,1,90,1,20,right,left,left,1,0,1,0.209,17,712,1344,1.344,2.7939999999999996,0,0,0,0,8
5ecc3b8a119a5e800ca47d80,20,female,0,2,61,Ambigous_left,1,90,1,20,right,left,left,1,0,1,0.251,17,712,1344,1.344,2.7939999999999996,0,0,0,0,8
5ecc3b8a119a5e800ca47d80,20,female,0,2,64,Ambigous_left,1,90,1,20,right,left,right,0,-19,0,0.11599999999999999,17,712,1344,1.344,2.7939999999999996,1,0,1,0,8
5ecc3b8a119a5e800ca47d80,20,female,0,2,65,Ambigous_left,1,90,1,20,right,left,left,1,0,1,0.272,17,712,1344,1.344,2.7939999999999996,0,0,0,0,8
5ecc3b8a119a5e800ca47d80,20,female,0,2,69,Ambigous_left,1,90,1,20,right,left,right,0,-19,0,0.07400000000000001,17,712,1344,1.344,2.7939999999999996,1,0,1,0,8
5ecc3b8a119a5e800ca47d80,20,female,0,2,72,Ambigous_left,1,90,1,20,right,left,left,1,0,1,0.138,17,712,1344,1.344,2.7939999999999996,0,0,0,0,8
5ecc3b8a119a5e800ca47d80,20,female,0,2,74,Ambigous_left,1,90,1,20,right,left,left,1,0,1,0.14400000000000002,17,712,1344,1.344,2.7939999999999996,0,0,0,0,8
5ecc3b8a119a5e800ca47d80,20,female,0,2,78,Ambigous_left,1,90,1,20,right,left,left,1,0,1,0.175,17,712,1344,1.344,2.7939999999999996,0,0,0,0,8
5ecc3b8a119a5e800ca47d80,20,female,0,2,79,Ambigous_left,1,90,1,20,right,left,left,1,0,1,0.14400000000000002,17,712,1344,1.344,2.7939999999999996,0,0,0,0,8
5ecc3b8a119a5e800ca47d80,20,female,0,2,90,Ambigous_left,1,90,1,20,right,left,left,1,0,1,0.127,17,712,1344,1.344,2.7939999999999996,0,0,0,0,8
5ecc3b8a119a5e800ca47d80,20,female,0,2,92,Ambigous_left,1,90,1,20,right,left,left,1,0,1,0.154,17,712,1344,1.344,2.7939999999999996,0,0,0,0,8
5ecd6addd559270c48385571,20,female,1,1,1,Ambigous_left,2,10,0,0,right,left,right,20,1,0,1.749,10,671,1465,1.465,2.915,1,1,0,8,0
5ecd6addd559270c48385571,20,female,1,1,6,Ambigous_left,2,10,0,0,right,left,right,20,1,0,0.758,10,671,1465,1.465,2.915,1,1,0,8,0
5ecd6addd559270c48385571,20,female,1,1,7,Ambigous_left,2,10,0,0,right,left,right,20,1,0,1.125,10,671,1465,1.465,2.915,1,1,0,8,0
5ecd6addd559270c48385571,20,female,1,1,8,Ambigous_left,2,10,0,0,right,left,left,1,20,1,0.945,10,671,1465,1.465,2.915,0,0,0,8,0
5ecd6addd559270c48385571,20,female,1,1,11,Ambigous_left,2,10,0,0,right,left,left,1,20,1,0.484,10,671,1465,1.465,2.915,0,0,0,8,0
5ecd6addd559270c48385571,20,female,1,1,12,Ambigous_left,2,10,1,180,right,left,right,-160,-179,0,0.499,10,671,1465,1.465,2.915,1,1,0,8,0
5ecd6addd559270c48385571,20,female,1,1,15,Ambigous_left,2,10,0,0,right,left,left,1,20,1,0.345,10,671,1465,1.465,2.915,0,0,0,8,0
5ecd6addd559270c48385571,20,female,1,1,28,Ambigous_left,2,10,0,0,right,left,left,1,20,1,0.222,10,671,1465,1.465,2.915,0,0,0,8,0
5ecd6addd559270c48385571,20,female,1,1,31,Ambigous_left,2,10,0,0,right,left,left,1,20,1,0.436,10,671,1465,1.465,2.915,0,0,0,8,0
5ecd6addd559270c48385571,20,female,1,1,33,Ambigous_left,2,10,0,0,right,left,left,1,20,1,0.19899999999999998,10,671,1465,1.465,2.915,0,0,0,8,0
5ecd6addd559270c48385571,20,female,1,1,37,Ambigous_left,2,10,0,0,right,left,left,1,20,1,0.27899999999999997,10,671,1465,1.465,2.915,0,0,0,8,0
5ecd6addd559270c48385571,20,female,1,1,41,Ambigous_left,2,10,0,0,right,left,left,1,20,1,0.282,10,671,1465,1.465,2.915,0,0,0,8,0
5ecd6addd559270c48385571,20,female,1,1,43,Ambigous_left,2,10,1,180,right,left,left,1,-160,1,0.188,10,671,1465,1.465,2.915,0,0,0,8,0
5ecd6addd559270c48385571,20,female,1,1,48,Ambigous_left,2,10,0,0,right,left,left,1,20,1,0.16399999999999998,10,671,1465,1.465,2.915,0,0,0,8,0
5ecd6addd559270c48385571,20,female,1,1,56,Ambigous_left,2,10,0,0,right,left,left,1,20,1,0.252,10,671,1465,1.465,2.915,0,0,0,8,0
5ecd6addd559270c48385571,20,female,1,1,61,Ambigous_left,2,10,1,180,right,left,right,-160,-179,0,0.255,10,671,1465,1.465,2.915,1,1,0,8,0
5ecd6addd559270c48385571,20,female,1,1,62,Ambigous_left,2,10,0,0,right,left,left,1,20,1,0.38299999999999995,10,671,1465,1.465,2.915,0,0,0,8,0
5ecd6addd559270c48385571,20,female,1,1,64,Ambigous_left,2,10,0,0,right,left,right,20,1,0,0.521,10,671,1465,1.465,2.915,1,1,0,8,0
5ecd6addd559270c48385571,20,female,1,1,69,Ambigous_left,2,10,0,0,right,left,left,1,20,1,0.389,10,671,1465,1.465,2.915,0,0,0,8,0
5ecd6addd559270c48385571,20,female,1,1,73,Ambigous_left,2,10,0,0,right,left,right,20,1,0,0.177,10,671,1465,1.465,2.915,1,1,0,8,0
5ecd6addd559270c48385571,20,female,1,1,75,Ambigous_left,2,10,0,0,right,left,left,1,20,1,0.19,10,671,1465,1.465,2.915,0,0,0,8,0
5ecd6addd559270c48385571,20,female,1,1,76,Ambigous_left,2,10,0,0,right,left,left,1,20,1,0.21600000000000005,10,671,1465,1.465,2.915,0,0,0,8,0
5ecd6addd559270c48385571,20,female,1,1,79,Ambigous_left,2,10,0,0,right,left,right,20,1,0,0.846,10,671,1465,1.465,2.915,1,1,0,8,0
5ecd6addd559270c48385571,20,female,1,1,88,Ambigous_left,2,10,0,0,right,left,left,1,20,1,0.244,10,671,1465,1.465,2.915,0,0,0,8,0
5ecd6addd559270c48385571,20,female,1,1,94,Ambigous_left,2,10,0,0,right,left,left,1,20,1,0.16399999999999998,10,671,1465,1.465,2.915,0,0,0,8,0
5ecd6addd559270c48385571,20,female,1,2,2,Ambigous_left,2,10,0,0,right,left,left,1,20,1,0.23800000000000002,7,794,1465,1.465,2.915,0,0,0,0,6
