user_id,age,gender,attention,block_number,trial_number,trial_type,conditions,p_inspection,inspection,fine_size,profitable_side,true_side,choice,trial_payoff,alternative_payoff,choice_correct,rt_choice,block_errors,block_payoff,final_payoff,bonus,final_payment,error,b1_cheating,b2_cheating,b1_sum,b2_sum
56100d727ffc8a0005811338,43,female,1,1,1,Clear_not_profit_side,3,0,0,0,left,right,right,1,2,1,0.498,6,141,277,0.27699999999999997,1.727,0,0,0,1,0
56100d727ffc8a0005811338,43,female,1,1,2,Clear_not_profit_side,3,0,0,0,left,right,right,1,2,1,0.513,6,141,277,0.27699999999999997,1.727,0,0,0,1,0
56100d727ffc8a0005811338,43,female,1,1,7,Clear_not_profit_side,3,0,0,0,left,right,right,1,2,1,0.23600000000000002,6,141,277,0.27699999999999997,1.727,0,0,0,1,0
56100d727ffc8a0005811338,43,female,1,1,8,Clear_not_profit_side,3,0,0,0,left,right,right,1,2,1,0.652,6,141,277,0.27699999999999997,1.727,0,0,0,1,0
56100d727ffc8a0005811338,43,female,1,1,9,Clear_not_profit_side,3,0,0,0,left,right,right,1,2,1,0.335,6,141,277,0.27699999999999997,1.727,0,0,0,1,0
56100d727ffc8a0005811338,43,female,1,1,10,Clear_not_profit_side,3,0,0,0,left,right,right,1,2,1,0.233,6,141,277,0.27699999999999997,1.727,0,0,0,1,0
56100d727ffc8a0005811338,43,female,1,1,18,Clear_not_profit_side,3,0,0,0,left,right,right,1,2,1,0.31,6,141,277,0.27699999999999997,1.727,0,0,0,1,0
56100d727ffc8a0005811338,43,female,1,1,21,Clear_not_profit_side,3,0,0,0,left,right,right,1,2,1,0.28800000000000003,6,141,277,0.27699999999999997,1.727,0,0,0,1,0
56100d727ffc8a0005811338,43,female,1,1,22,Clear_not_profit_side,3,0,0,0,left,right,right,1,2,1,0.612,6,141,277,0.27699999999999997,1.727,0,0,0,1,0
56100d727ffc8a0005811338,43,female,1,1,28,Clear_not_profit_side,3,0,0,0,left,right,right,1,2,1,0.20800000000000002,6,141,277,0.27699999999999997,1.727,0,0,0,1,0
56100d727ffc8a0005811338,43,female,1,1,32,Clear_not_profit_side,3,0,0,0,left,right,right,1,2,1,0.214,6,141,277,0.27699999999999997,1.727,0,0,0,1,0
56100d727ffc8a0005811338,43,female,1,1,33,Clear_not_profit_side,3,0,0,0,left,right,right,1,2,1,0.45399999999999996,6,141,277,0.27699999999999997,1.727,0,0,0,1,0
56100d727ffc8a0005811338,43,female,1,1,35,Clear_not_profit_side,3,0,0,0,left,right,right,1,2,1,0.20800000000000002,6,141,277,0.27699999999999997,1.727,0,0,0,1,0
56100d727ffc8a0005811338,43,female,1,1,37,Clear_not_profit_side,3,0,0,0,left,right,right,1,2,1,0.258,6,141,277,0.27699999999999997,1.727,0,0,0,1,0
56100d727ffc8a0005811338,43,female,1,1,38,Clear_not_profit_side,3,0,0,0,left,right,left,2,1,0,0.618,6,141,277,0.27699999999999997,1.727,1,1,0,1,0
56100d727ffc8a0005811338,43,female,1,1,39,Clear_not_profit_side,3,0,0,0,left,right,right,1,2,1,0.263,6,141,277,0.27699999999999997,1.727,0,0,0,1,0
56100d727ffc8a0005811338,43,female,1,1,40,Clear_not_profit_side,3,0,0,0,left,right,right,1,2,1,0.245,6,141,277,0.27699999999999997,1.727,0,0,0,1,0
56100d727ffc8a0005811338,43,female,1,1,42,Clear_not_profit_side,3,0,0,0,left,right,right,1,2,1,0.203,6,141,277,0.27699999999999997,1.727,0,0,0,1,0
56100d727ffc8a0005811338,43,female,1,1,46,Clear_not_profit_side,3,0,0,0,left,right,right,1,2,1,0.23399999999999999,6,141,277,0.27699999999999997,1.727,0,0,0,1,0
56100d727ffc8a0005811338,43,female,1,1,51,Clear_not_profit_side,3,0,0,0,left,right,right,1,2,1,0.18100000000000002,6,141,277,0.27699999999999997,1.727,0,0,0,1,0
56100d727ffc8a0005811338,43,female,1,1,56,Clear_not_profit_side,3,0,0,0,left,right,right,1,2,1,0.217,6,141,277,0.27699999999999997,1.727,0,0,0,1,0
56100d727ffc8a0005811338,43,female,1,1,58,Clear_not_profit_side,3,0,0,0,left,right,right,1,2,1,0.19899999999999998,6,141,277,0.27699999999999997,1.727,0,0,0,1,0
56100d727ffc8a0005811338,43,female,1,1,60,Clear_not_profit_side,3,0,0,0,left,right,right,1,2,1,0.203,6,141,277,0.27699999999999997,1.727,0,0,0,1,0
56100d727ffc8a0005811338,43,female,1,1,62,Clear_not_profit_side,3,0,0,0,left,right,right,1,2,1,0.268,6,141,277,0.27699999999999997,1.727,0,0,0,1,0
56100d727ffc8a0005811338,43,female,1,1,66,Clear_not_profit_side,3,0,0,0,left,right,right,1,2,1,0.469,6,141,277,0.27699999999999997,1.727,0,0,0,1,0
56100d727ffc8a0005811338,43,female,1,1,69,Clear_not_profit_side,3,0,0,0,left,right,right,1,2,1,0.83,6,141,277,0.27699999999999997,1.727,0,0,0,1,0
56100d727ffc8a0005811338,43,female,1,1,70,Clear_not_profit_side,3,0,0,0,left,right,right,1,2,1,0.18,6,141,277,0.27699999999999997,1.727,0,0,0,1,0
56100d727ffc8a0005811338,43,female,1,1,77,Clear_not_profit_side,3,0,0,0,left,right,right,1,2,1,0.627,6,141,277,0.27699999999999997,1.727,0,0,0,1,0
56100d727ffc8a0005811338,43,female,1,1,78,Clear_not_profit_side,3,0,0,0,left,right,right,1,2,1,0.669,6,141,277,0.27699999999999997,1.727,0,0,0,1,0
56100d727ffc8a0005811338,43,female,1,1,83,Clear_not_profit_side,3,0,0,0,left,right,right,1,2,1,0.14800000000000002,6,141,277,0.27699999999999997,1.727,0,0,0,1,0
56100d727ffc8a0005811338,43,female,1,1,87,Clear_not_profit_side,3,0,0,0,left,right,right,1,2,1,0.21,6,141,277,0.27699999999999997,1.727,0,0,0,1,0
56100d727ffc8a0005811338,43,female,1,1,91,Clear_not_profit_side,3,0,0,0,left,right,right,1,2,1,0.16699999999999998,6,141,277,0.27699999999999997,1.727,0,0,0,1,0
56100d727ffc8a0005811338,43,female,1,1,93,Clear_not_profit_side,3,0,0,0,left,right,right,1,2,1,0.124,6,141,277,0.27699999999999997,1.727,0,0,0,1,0
56100d727ffc8a0005811338,43,female,1,1,99,Clear_not_profit_side,3,0,0,0,left,right,right,1,2,1,0.153,6,141,277,0.27699999999999997,1.727,0,0,0,1,0
56100d727ffc8a0005811338,43,female,1,2,3,Clear_not_profit_side,3,0,0,0,left,right,right,1,2,1,0.157,7,136,277,0.27699999999999997,1.727,0,0,0,0,0
56100d727ffc8a0005811338,43,female,1,2,4,Clear_not_profit_side,3,0,0,0,left,right,right,1,2,1,0.188,7,136,277,0.27699999999999997,1.727,0,0,0,0,0
56100d727ffc8a0005811338,43,female,1,2,7,Clear_not_profit_side,3,0,0,0,left,right,right,1,2,1,0.17300000000000001,7,136,277,0.27699999999999997,1.727,0,0,0,0,0
56100d727ffc8a0005811338,43,female,1,2,8,Clear_not_profit_side,3,0,0,0,left,right,right,1,2,1,0.162,7,136,277,0.27699999999999997,1.727,0,0,0,0,0
56100d727ffc8a0005811338,43,female,1,2,16,Clear_not_profit_side,3,0,0,0,left,right,right,1,2,1,0.145,7,136,277,0.27699999999999997,1.727,0,0,0,0,0
56100d727ffc8a0005811338,43,female,1,2,17,Clear_not_profit_side,3,0,0,0,left,right,right,1,2,1,0.115,7,136,277,0.27699999999999997,1.727,0,0,0,0,0
56100d727ffc8a0005811338,43,female,1,2,18,Clear_not_profit_side,3,0,0,0,left,right,right,1,2,1,0.13699999999999998,7,136,277,0.27699999999999997,1.727,0,0,0,0,0
56100d727ffc8a0005811338,43,female,1,2,19,Clear_not_profit_side,3,0,0,0,left,right,right,1,2,1,0.28,7,136,277,0.27699999999999997,1.727,0,0,0,0,0
56100d727ffc8a0005811338,43,female,1,2,22,Clear_not_profit_side,3,0,0,0,left,right,right,1,2,1,0.13,7,136,277,0.27699999999999997,1.727,0,0,0,0,0
56100d727ffc8a0005811338,43,female,1,2,24,Clear_not_profit_side,3,0,0,0,left,right,right,1,2,1,0.165,7,136,277,0.27699999999999997,1.727,0,0,0,0,0
56100d727ffc8a0005811338,43,female,1,2,26,Clear_not_profit_side,3,0,0,0,left,right,right,1,2,1,0.247,7,136,277,0.27699999999999997,1.727,0,0,0,0,0
56100d727ffc8a0005811338,43,female,1,2,36,Clear_not_profit_side,3,0,0,0,left,right,right,1,2,1,0.203,7,136,277,0.27699999999999997,1.727,0,0,0,0,0
56100d727ffc8a0005811338,43,female,1,2,38,Clear_not_profit_side,3,0,0,0,left,right,right,1,2,1,0.10300000000000001,7,136,277,0.27699999999999997,1.727,0,0,0,0,0
56100d727ffc8a0005811338,43,female,1,2,39,Clear_not_profit_side,3,0,0,0,left,right,right,1,2,1,0.111,7,136,277,0.27699999999999997,1.727,0,0,0,0,0
56100d727ffc8a0005811338,43,female,1,2,40,Clear_not_profit_side,3,0,0,0,left,right,right,1,2,1,0.132,7,136,277,0.27699999999999997,1.727,0,0,0,0,0
56100d727ffc8a0005811338,43,female,1,2,43,Clear_not_profit_side,3,0,0,0,left,right,right,1,2,1,0.215,7,136,277,0.27699999999999997,1.727,0,0,0,0,0
56100d727ffc8a0005811338,43,female,1,2,54,Clear_not_profit_side,3,0,0,0,left,right,right,1,2,1,0.319,7,136,277,0.27699999999999997,1.727,0,0,0,0,0
56100d727ffc8a0005811338,43,female,1,2,55,Clear_not_profit_side,3,0,0,0,left,right,right,1,2,1,0.113,7,136,277,0.27699999999999997,1.727,0,0,0,0,0
56100d727ffc8a0005811338,43,female,1,2,56,Clear_not_profit_side,3,0,0,0,left,right,right,1,2,1,0.111,7,136,277,0.27699999999999997,1.727,0,0,0,0,0
56100d727ffc8a0005811338,43,female,1,2,58,Clear_not_profit_side,3,0,0,0,left,right,right,1,2,1,0.19899999999999998,7,136,277,0.27699999999999997,1.727,0,0,0,0,0
56100d727ffc8a0005811338,43,female,1,2,61,Clear_not_profit_side,3,0,0,0,left,right,right,1,2,1,0.308,7,136,277,0.27699999999999997,1.727,0,0,0,0,0
56100d727ffc8a0005811338,43,female,1,2,62,Clear_not_profit_side,3,0,0,0,left,right,right,1,2,1,0.129,7,136,277,0.27699999999999997,1.727,0,0,0,0,0
56100d727ffc8a0005811338,43,female,1,2,63,Clear_not_profit_side,3,0,0,0,left,right,right,1,2,1,0.11199999999999999,7,136,277,0.27699999999999997,1.727,0,0,0,0,0
56100d727ffc8a0005811338,43,female,1,2,64,Clear_not_profit_side,3,0,0,0,left,right,right,1,2,1,0.109,7,136,277,0.27699999999999997,1.727,0,0,0,0,0
56100d727ffc8a0005811338,43,female,1,2,66,Clear_not_profit_side,3,0,0,0,left,right,right,1,2,1,0.11,7,136,277,0.27699999999999997,1.727,0,0,0,0,0
56100d727ffc8a0005811338,43,female,1,2,67,Clear_not_profit_side,3,0,0,0,left,right,right,1,2,1,0.095,7,136,277,0.27699999999999997,1.727,0,0,0,0,0
56100d727ffc8a0005811338,43,female,1,2,72,Clear_not_profit_side,3,0,0,0,left,right,right,1,2,1,0.28300000000000003,7,136,277,0.27699999999999997,1.727,0,0,0,0,0
56100d727ffc8a0005811338,43,female,1,2,76,Clear_not_profit_side,3,0,0,0,left,right,right,1,2,1,0.11199999999999999,7,136,277,0.27699999999999997,1.727,0,0,0,0,0
56100d727ffc8a0005811338,43,female,1,2,79,Clear_not_profit_side,3,0,0,0,left,right,right,1,2,1,0.16899999999999998,7,136,277,0.27699999999999997,1.727,0,0,0,0,0
56100d727ffc8a0005811338,43,female,1,2,80,Clear_not_profit_side,3,0,0,0,left,right,right,1,2,1,0.348,7,136,277,0.27699999999999997,1.727,0,0,0,0,0
56100d727ffc8a0005811338,43,female,1,2,81,Clear_not_profit_side,3,0,0,0,left,right,right,1,2,1,0.314,7,136,277,0.27699999999999997,1.727,0,0,0,0,0
56100d727ffc8a0005811338,43,female,1,2,83,Clear_not_profit_side,3,0,0,0,left,right,right,1,2,1,0.496,7,136,277,0.27699999999999997,1.727,0,0,0,0,0
56100d727ffc8a0005811338,43,female,1,2,97,Clear_not_profit_side,3,0,0,0,left,right,right,1,2,1,0.18100000000000002,7,136,277,0.27699999999999997,1.727,0,0,0,0,0
56100d727ffc8a0005811338,43,female,1,2,98,Clear_not_profit_side,3,0,0,0,left,right,right,1,2,1,0.40700000000000003,7,136,277,0.27699999999999997,1.727,0,0,0,0,0
578f9f52eeaf6d00018d4f20,30,male,1,1,1,Clear_not_profit_side,3,0,0,0,left,right,left,2,1,0,0.23399999999999999,59,200,398,0.39799999999999996,1.848,1,1,0,34,0
578f9f52eeaf6d00018d4f20,30,male,1,1,3,Clear_not_profit_side,3,0,0,0,left,right,left,2,1,0,0.08199999999999999,59,200,398,0.39799999999999996,1.848,1,1,0,34,0
578f9f52eeaf6d00018d4f20,30,male,1,1,8,Clear_not_profit_side,3,0,0,0,left,right,left,2,1,0,0.133,59,200,398,0.39799999999999996,1.848,1,1,0,34,0
578f9f52eeaf6d00018d4f20,30,male,1,1,9,Clear_not_profit_side,3,0,0,0,left,right,left,2,1,0,0.035,59,200,398,0.39799999999999996,1.848,1,1,0,34,0
578f9f52eeaf6d00018d4f20,30,male,1,1,10,Clear_not_profit_side,3,0,0,0,left,right,left,2,1,0,0.13,59,200,398,0.39799999999999996,1.848,1,1,0,34,0
578f9f52eeaf6d00018d4f20,30,male,1,1,11,Clear_not_profit_side,3,0,0,0,left,right,left,2,1,0,0.087,59,200,398,0.39799999999999996,1.848,1,1,0,34,0
578f9f52eeaf6d00018d4f20,30,male,1,1,13,Clear_not_profit_side,3,0,0,0,left,right,left,2,1,0,0.039,59,200,398,0.39799999999999996,1.848,1,1,0,34,0
578f9f52eeaf6d00018d4f20,30,male,1,1,19,Clear_not_profit_side,3,0,0,0,left,right,left,2,1,0,0.048,59,200,398,0.39799999999999996,1.848,1,1,0,34,0
578f9f52eeaf6d00018d4f20,30,male,1,1,23,Clear_not_profit_side,3,0,0,0,left,right,left,2,1,0,0.036000000000000004,59,200,398,0.39799999999999996,1.848,1,1,0,34,0
578f9f52eeaf6d00018d4f20,30,male,1,1,25,Clear_not_profit_side,3,0,0,0,left,right,left,2,1,0,0.017,59,200,398,0.39799999999999996,1.848,1,1,0,34,0
578f9f52eeaf6d00018d4f20,30,male,1,1,33,Clear_not_profit_side,3,0,0,0,left,right,left,2,1,0,0.018000000000000002,59,200,398,0.39799999999999996,1.848,1,1,0,34,0
578f9f52eeaf6d00018d4f20,30,male,1,1,41,Clear_not_profit_side,3,0,0,0,left,right,left,2,1,0,0.068,59,200,398,0.39799999999999996,1.848,1,1,0,34,0
578f9f52eeaf6d00018d4f20,30,male,1,1,42,Clear_not_profit_side,3,0,0,0,left,right,left,2,1,0,0.057999999999999996,59,200,398,0.39799999999999996,1.848,1,1,0,34,0
578f9f52eeaf6d00018d4f20,30,male,1,1,45,Clear_not_profit_side,3,0,0,0,left,right,left,2,1,0,0.061,59,200,398,0.39799999999999996,1.848,1,1,0,34,0
578f9f52eeaf6d00018d4f20,30,male,1,1,48,Clear_not_profit_side,3,0,0,0,left,right,left,2,1,0,0.01,59,200,398,0.39799999999999996,1.848,1,1,0,34,0
578f9f52eeaf6d00018d4f20,30,male,1,1,52,Clear_not_profit_side,3,0,0,0,left,right,left,2,1,0,0.011000000000000001,59,200,398,0.39799999999999996,1.848,1,1,0,34,0
578f9f52eeaf6d00018d4f20,30,male,1,1,56,Clear_not_profit_side,3,0,0,0,left,right,left,2,1,0,0.07400000000000001,59,200,398,0.39799999999999996,1.848,1,1,0,34,0
578f9f52eeaf6d00018d4f20,30,male,1,1,58,Clear_not_profit_side,3,0,0,0,left,right,left,2,1,0,0.046,59,200,398,0.39799999999999996,1.848,1,1,0,34,0
578f9f52eeaf6d00018d4f20,30,male,1,1,61,Clear_not_profit_side,3,0,0,0,left,right,left,2,1,0,0.047,59,200,398,0.39799999999999996,1.848,1,1,0,34,0
578f9f52eeaf6d00018d4f20,30,male,1,1,62,Clear_not_profit_side,3,0,0,0,left,right,left,2,1,0,0.078,59,200,398,0.39799999999999996,1.848,1,1,0,34,0
578f9f52eeaf6d00018d4f20,30,male,1,1,64,Clear_not_profit_side,3,0,0,0,left,right,left,2,1,0,12.626,59,200,398,0.39799999999999996,1.848,1,1,0,34,0
578f9f52eeaf6d00018d4f20,30,male,1,1,65,Clear_not_profit_side,3,0,0,0,left,right,left,2,1,0,0.06,59,200,398,0.39799999999999996,1.848,1,1,0,34,0
578f9f52eeaf6d00018d4f20,30,male,1,1,67,Clear_not_profit_side,3,0,0,0,left,right,left,2,1,0,0.107,59,200,398,0.39799999999999996,1.848,1,1,0,34,0
578f9f52eeaf6d00018d4f20,30,male,1,1,68,Clear_not_profit_side,3,0,0,0,left,right,left,2,1,0,0.126,59,200,398,0.39799999999999996,1.848,1,1,0,34,0
578f9f52eeaf6d00018d4f20,30,male,1,1,69,Clear_not_profit_side,3,0,0,0,left,right,left,2,1,0,0.08199999999999999,59,200,398,0.39799999999999996,1.848,1,1,0,34,0
578f9f52eeaf6d00018d4f20,30,male,1,1,72,Clear_not_profit_side,3,0,0,0,left,right,left,2,1,0,0.094,59,200,398,0.39799999999999996,1.848,1,1,0,34,0
578f9f52eeaf6d00018d4f20,30,male,1,1,74,Clear_not_profit_side,3,0,0,0,left,right,left,2,1,0,0.035,59,200,398,0.39799999999999996,1.848,1,1,0,34,0
578f9f52eeaf6d00018d4f20,30,male,1,1,76,Clear_not_profit_side,3,0,0,0,left,right,left,2,1,0,0.034,59,200,398,0.39799999999999996,1.848,1,1,0,34,0
578f9f52eeaf6d00018d4f20,30,male,1,1,77,Clear_not_profit_side,3,0,0,0,left,right,left,2,1,0,0.084,59,200,398,0.39799999999999996,1.848,1,1,0,34,0
578f9f52eeaf6d00018d4f20,30,male,1,1,83,Clear_not_profit_side,3,0,0,0,left,right,left,2,1,0,0.08900000000000001,59,200,398,0.39799999999999996,1.848,1,1,0,34,0
578f9f52eeaf6d00018d4f20,30,male,1,1,85,Clear_not_profit_side,3,0,0,0,left,right,left,2,1,0,0.04,59,200,398,0.39799999999999996,1.848,1,1,0,34,0
578f9f52eeaf6d00018d4f20,30,male,1,1,87,Clear_not_profit_side,3,0,0,0,left,right,left,2,1,0,0.045,59,200,398,0.39799999999999996,1.848,1,1,0,34,0
578f9f52eeaf6d00018d4f20,30,male,1,1,92,Clear_not_profit_side,3,0,0,0,left,right,left,2,1,0,0.10400000000000001,59,200,398,0.39799999999999996,1.848,1,1,0,34,0
578f9f52eeaf6d00018d4f20,30,male,1,1,94,Clear_not_profit_side,3,0,0,0,left,right,left,2,1,0,0.02,59,200,398,0.39799999999999996,1.848,1,1,0,34,0
578f9f52eeaf6d00018d4f20,30,male,1,2,1,Clear_not_profit_side,3,0,0,0,left,right,left,2,1,0,0.025,59,198,398,0.39799999999999996,1.848,1,0,1,0,34
578f9f52eeaf6d00018d4f20,30,male,1,2,6,Clear_not_profit_side,3,0,0,0,left,right,left,2,1,0,0.043,59,198,398,0.39799999999999996,1.848,1,0,1,0,34
578f9f52eeaf6d00018d4f20,30,male,1,2,7,Clear_not_profit_side,3,0,0,0,left,right,left,2,1,0,0.07400000000000001,59,198,398,0.39799999999999996,1.848,1,0,1,0,34
578f9f52eeaf6d00018d4f20,30,male,1,2,9,Clear_not_profit_side,3,0,0,0,left,right,left,2,1,0,0.036000000000000004,59,198,398,0.39799999999999996,1.848,1,0,1,0,34
578f9f52eeaf6d00018d4f20,30,male,1,2,12,Clear_not_profit_side,3,0,0,0,left,right,left,2,1,0,0.096,59,198,398,0.39799999999999996,1.848,1,0,1,0,34
578f9f52eeaf6d00018d4f20,30,male,1,2,16,Clear_not_profit_side,3,0,0,0,left,right,left,2,1,0,0.02,59,198,398,0.39799999999999996,1.848,1,0,1,0,34
578f9f52eeaf6d00018d4f20,30,male,1,2,17,Clear_not_profit_side,3,0,0,0,left,right,left,2,1,0,0.126,59,198,398,0.39799999999999996,1.848,1,0,1,0,34
578f9f52eeaf6d00018d4f20,30,male,1,2,18,Clear_not_profit_side,3,0,0,0,left,right,left,2,1,0,0.032,59,198,398,0.39799999999999996,1.848,1,0,1,0,34
578f9f52eeaf6d00018d4f20,30,male,1,2,22,Clear_not_profit_side,3,0,0,0,left,right,left,2,1,0,0.052000000000000005,59,198,398,0.39799999999999996,1.848,1,0,1,0,34
578f9f52eeaf6d00018d4f20,30,male,1,2,28,Clear_not_profit_side,3,0,0,0,left,right,left,2,1,0,0.042,59,198,398,0.39799999999999996,1.848,1,0,1,0,34
578f9f52eeaf6d00018d4f20,30,male,1,2,29,Clear_not_profit_side,3,0,0,0,left,right,left,2,1,0,0.059000000000000004,59,198,398,0.39799999999999996,1.848,1,0,1,0,34
578f9f52eeaf6d00018d4f20,30,male,1,2,31,Clear_not_profit_side,3,0,0,0,left,right,left,2,1,0,0.091,59,198,398,0.39799999999999996,1.848,1,0,1,0,34
578f9f52eeaf6d00018d4f20,30,male,1,2,34,Clear_not_profit_side,3,0,0,0,left,right,left,2,1,0,0.034,59,198,398,0.39799999999999996,1.848,1,0,1,0,34
578f9f52eeaf6d00018d4f20,30,male,1,2,35,Clear_not_profit_side,3,0,0,0,left,right,left,2,1,0,0.006,59,198,398,0.39799999999999996,1.848,1,0,1,0,34
578f9f52eeaf6d00018d4f20,30,male,1,2,40,Clear_not_profit_side,3,0,0,0,left,right,left,2,1,0,0.026000000000000002,59,198,398,0.39799999999999996,1.848,1,0,1,0,34
578f9f52eeaf6d00018d4f20,30,male,1,2,43,Clear_not_profit_side,3,0,0,0,left,right,left,2,1,0,0.039,59,198,398,0.39799999999999996,1.848,1,0,1,0,34
578f9f52eeaf6d00018d4f20,30,male,1,2,45,Clear_not_profit_side,3,0,0,0,left,right,left,2,1,0,0.045,59,198,398,0.39799999999999996,1.848,1,0,1,0,34
578f9f52eeaf6d00018d4f20,30,male,1,2,48,Clear_not_profit_side,3,0,0,0,left,right,left,2,1,0,0.06,59,198,398,0.39799999999999996,1.848,1,0,1,0,34
578f9f52eeaf6d00018d4f20,30,male,1,2,52,Clear_not_profit_side,3,0,0,0,left,right,left,2,1,0,0.044000000000000004,59,198,398,0.39799999999999996,1.848,1,0,1,0,34
578f9f52eeaf6d00018d4f20,30,male,1,2,54,Clear_not_profit_side,3,0,0,0,left,right,left,2,1,0,0.023,59,198,398,0.39799999999999996,1.848,1,0,1,0,34
578f9f52eeaf6d00018d4f20,30,male,1,2,60,Clear_not_profit_side,3,0,0,0,left,right,left,2,1,0,0.064,59,198,398,0.39799999999999996,1.848,1,0,1,0,34
578f9f52eeaf6d00018d4f20,30,male,1,2,61,Clear_not_profit_side,3,0,0,0,left,right,left,2,1,0,0.033,59,198,398,0.39799999999999996,1.848,1,0,1,0,34
578f9f52eeaf6d00018d4f20,30,male,1,2,68,Clear_not_profit_side,3,0,0,0,left,right,left,2,1,0,0.06,59,198,398,0.39799999999999996,1.848,1,0,1,0,34
578f9f52eeaf6d00018d4f20,30,male,1,2,73,Clear_not_profit_side,3,0,0,0,left,right,left,2,1,0,0.037000000000000005,59,198,398,0.39799999999999996,1.848,1,0,1,0,34
578f9f52eeaf6d00018d4f20,30,male,1,2,74,Clear_not_profit_side,3,0,0,0,left,right,left,2,1,0,0.081,59,198,398,0.39799999999999996,1.848,1,0,1,0,34
578f9f52eeaf6d00018d4f20,30,male,1,2,78,Clear_not_profit_side,3,0,0,0,left,right,left,2,1,0,0.024,59,198,398,0.39799999999999996,1.848,1,0,1,0,34
578f9f52eeaf6d00018d4f20,30,male,1,2,79,Clear_not_profit_side,3,0,0,0,left,right,left,2,1,0,0.03,59,198,398,0.39799999999999996,1.848,1,0,1,0,34
578f9f52eeaf6d00018d4f20,30,male,1,2,80,Clear_not_profit_side,3,0,0,0,left,right,left,2,1,0,0.09,59,198,398,0.39799999999999996,1.848,1,0,1,0,34
578f9f52eeaf6d00018d4f20,30,male,1,2,81,Clear_not_profit_side,3,0,0,0,left,right,left,2,1,0,0.052000000000000005,59,198,398,0.39799999999999996,1.848,1,0,1,0,34
578f9f52eeaf6d00018d4f20,30,male,1,2,82,Clear_not_profit_side,3,0,0,0,left,right,left,2,1,0,0.032,59,198,398,0.39799999999999996,1.848,1,0,1,0,34
578f9f52eeaf6d00018d4f20,30,male,1,2,88,Clear_not_profit_side,3,0,0,0,left,right,left,2,1,0,0.048,59,198,398,0.39799999999999996,1.848,1,0,1,0,34
578f9f52eeaf6d00018d4f20,30,male,1,2,89,Clear_not_profit_side,3,0,0,0,left,right,left,2,1,0,0.066,59,198,398,0.39799999999999996,1.848,1,0,1,0,34
578f9f52eeaf6d00018d4f20,30,male,1,2,97,Clear_not_profit_side,3,0,0,0,left,right,left,2,1,0,0.071,59,198,398,0.39799999999999996,1.848,1,0,1,0,34
578f9f52eeaf6d00018d4f20,30,male,1,2,100,Clear_not_profit_side,3,0,0,0,left,right,left,2,1,0,0.026000000000000002,59,198,398,0.39799999999999996,1.848,1,0,1,0,34
595bf7acc76e6700014d33fc,52,female,1,1,1,Clear_not_profit_side,2,10,0,0,left,right,right,1,20,1,0.171,9,642,1170,1.17,2.62,0,0,0,0,0
595bf7acc76e6700014d33fc,52,female,1,1,9,Clear_not_profit_side,2,10,0,0,left,right,right,1,20,1,0.055999999999999994,9,642,1170,1.17,2.62,0,0,0,0,0
595bf7acc76e6700014d33fc,52,female,1,1,11,Clear_not_profit_side,2,10,1,180,left,right,right,1,-160,1,0.046,9,642,1170,1.17,2.62,0,0,0,0,0
595bf7acc76e6700014d33fc,52,female,1,1,12,Clear_not_profit_side,2,10,0,0,left,right,right,1,20,1,0.073,9,642,1170,1.17,2.62,0,0,0,0,0
595bf7acc76e6700014d33fc,52,female,1,1,20,Clear_not_profit_side,2,10,0,0,left,right,right,1,20,1,0.049,9,642,1170,1.17,2.62,0,0,0,0,0
595bf7acc76e6700014d33fc,52,female,1,1,23,Clear_not_profit_side,2,10,0,0,left,right,right,1,20,1,0.055999999999999994,9,642,1170,1.17,2.62,0,0,0,0,0
595bf7acc76e6700014d33fc,52,female,1,1,25,Clear_not_profit_side,2,10,0,0,left,right,right,1,20,1,0.05,9,642,1170,1.17,2.62,0,0,0,0,0
595bf7acc76e6700014d33fc,52,female,1,1,27,Clear_not_profit_side,2,10,0,0,left,right,right,1,20,1,0.044000000000000004,9,642,1170,1.17,2.62,0,0,0,0,0
595bf7acc76e6700014d33fc,52,female,1,1,33,Clear_not_profit_side,2,10,0,0,left,right,right,1,20,1,0.062,9,642,1170,1.17,2.62,0,0,0,0,0
595bf7acc76e6700014d33fc,52,female,1,1,34,Clear_not_profit_side,2,10,0,0,left,right,right,1,20,1,0.055999999999999994,9,642,1170,1.17,2.62,0,0,0,0,0
595bf7acc76e6700014d33fc,52,female,1,1,37,Clear_not_profit_side,2,10,0,0,left,right,right,1,20,1,0.069,9,642,1170,1.17,2.62,0,0,0,0,0
595bf7acc76e6700014d33fc,52,female,1,1,38,Clear_not_profit_side,2,10,0,0,left,right,right,1,20,1,0.047,9,642,1170,1.17,2.62,0,0,0,0,0
595bf7acc76e6700014d33fc,52,female,1,1,39,Clear_not_profit_side,2,10,1,180,left,right,right,1,-160,1,0.042,9,642,1170,1.17,2.62,0,0,0,0,0
595bf7acc76e6700014d33fc,52,female,1,1,44,Clear_not_profit_side,2,10,0,0,left,right,right,1,20,1,0.036000000000000004,9,642,1170,1.17,2.62,0,0,0,0,0
595bf7acc76e6700014d33fc,52,female,1,1,48,Clear_not_profit_side,2,10,0,0,left,right,right,1,20,1,0.055,9,642,1170,1.17,2.62,0,0,0,0,0
595bf7acc76e6700014d33fc,52,female,1,1,51,Clear_not_profit_side,2,10,1,180,left,right,right,1,-160,1,0.045,9,642,1170,1.17,2.62,0,0,0,0,0
595bf7acc76e6700014d33fc,52,female,1,1,52,Clear_not_profit_side,2,10,0,0,left,right,right,1,20,1,0.049,9,642,1170,1.17,2.62,0,0,0,0,0
595bf7acc76e6700014d33fc,52,female,1,1,55,Clear_not_profit_side,2,10,0,0,left,right,right,1,20,1,0.055,9,642,1170,1.17,2.62,0,0,0,0,0
595bf7acc76e6700014d33fc,52,female,1,1,57,Clear_not_profit_side,2,10,1,180,left,right,right,1,-160,1,0.049,9,642,1170,1.17,2.62,0,0,0,0,0
595bf7acc76e6700014d33fc,52,female,1,1,59,Clear_not_profit_side,2,10,0,0,left,right,right,1,20,1,0.034,9,642,1170,1.17,2.62,0,0,0,0,0
595bf7acc76e6700014d33fc,52,female,1,1,61,Clear_not_profit_side,2,10,0,0,left,right,right,1,20,1,0.054000000000000006,9,642,1170,1.17,2.62,0,0,0,0,0
595bf7acc76e6700014d33fc,52,female,1,1,68,Clear_not_profit_side,2,10,1,180,left,right,right,1,-160,1,0.034,9,642,1170,1.17,2.62,0,0,0,0,0
595bf7acc76e6700014d33fc,52,female,1,1,75,Clear_not_profit_side,2,10,0,0,left,right,right,1,20,1,0.038,9,642,1170,1.17,2.62,0,0,0,0,0
595bf7acc76e6700014d33fc,52,female,1,1,76,Clear_not_profit_side,2,10,0,0,left,right,right,1,20,1,0.053,9,642,1170,1.17,2.62,0,0,0,0,0
595bf7acc76e6700014d33fc,52,female,1,1,77,Clear_not_profit_side,2,10,0,0,left,right,right,1,20,1,0.040999999999999995,9,642,1170,1.17,2.62,0,0,0,0,0
595bf7acc76e6700014d33fc,52,female,1,1,79,Clear_not_profit_side,2,10,0,0,left,right,right,1,20,1,0.037000000000000005,9,642,1170,1.17,2.62,0,0,0,0,0
595bf7acc76e6700014d33fc,52,female,1,1,83,Clear_not_profit_side,2,10,1,180,left,right,right,1,-160,1,0.05,9,642,1170,1.17,2.62,0,0,0,0,0
595bf7acc76e6700014d33fc,52,female,1,1,84,Clear_not_profit_side,2,10,0,0,left,right,right,1,20,1,0.035,9,642,1170,1.17,2.62,0,0,0,0,0
595bf7acc76e6700014d33fc,52,female,1,1,86,Clear_not_profit_side,2,10,0,0,left,right,right,1,20,1,0.031,9,642,1170,1.17,2.62,0,0,0,0,0
595bf7acc76e6700014d33fc,52,female,1,1,87,Clear_not_profit_side,2,10,0,0,left,right,right,1,20,1,0.044000000000000004,9,642,1170,1.17,2.62,0,0,0,0,0
595bf7acc76e6700014d33fc,52,female,1,1,88,Clear_not_profit_side,2,10,0,0,left,right,right,1,20,1,0.049,9,642,1170,1.17,2.62,0,0,0,0,0
595bf7acc76e6700014d33fc,52,female,1,1,89,Clear_not_profit_side,2,10,0,0,left,right,right,1,20,1,0.042,9,642,1170,1.17,2.62,0,0,0,0,0
595bf7acc76e6700014d33fc,52,female,1,1,90,Clear_not_profit_side,2,10,0,0,left,right,right,1,20,1,0.046,9,642,1170,1.17,2.62,0,0,0,0,0
595bf7acc76e6700014d33fc,52,female,1,1,95,Clear_not_profit_side,2,10,0,0,left,right,right,1,20,1,0.047,9,642,1170,1.17,2.62,0,0,0,0,0
595bf7acc76e6700014d33fc,52,female,1,2,2,Clear_not_profit_side,2,10,0,0,left,right,right,1,20,1,0.040999999999999995,13,528,1170,1.17,2.62,0,0,0,0,0
595bf7acc76e6700014d33fc,52,female,1,2,5,Clear_not_profit_side,2,10,0,0,left,right,right,1,20,1,0.039,13,528,1170,1.17,2.62,0,0,0,0,0
595bf7acc76e6700014d33fc,52,female,1,2,7,Clear_not_profit_side,2,10,1,180,left,right,right,1,-160,1,0.04,13,528,1170,1.17,2.62,0,0,0,0,0
595bf7acc76e6700014d33fc,52,female,1,2,8,Clear_not_profit_side,2,10,1,180,left,right,right,1,-160,1,0.036000000000000004,13,528,1170,1.17,2.62,0,0,0,0,0
595bf7acc76e6700014d33fc,52,female,1,2,13,Clear_not_profit_side,2,10,0,0,left,right,right,1,20,1,0.038,13,528,1170,1.17,2.62,0,0,0,0,0
595bf7acc76e6700014d33fc,52,female,1,2,14,Clear_not_profit_side,2,10,0,0,left,right,right,1,20,1,0.079,13,528,1170,1.17,2.62,0,0,0,0,0
595bf7acc76e6700014d33fc,52,female,1,2,17,Clear_not_profit_side,2,10,0,0,left,right,right,1,20,1,0.03,13,528,1170,1.17,2.62,0,0,0,0,0
595bf7acc76e6700014d33fc,52,female,1,2,18,Clear_not_profit_side,2,10,0,0,left,right,right,1,20,1,0.025,13,528,1170,1.17,2.62,0,0,0,0,0
595bf7acc76e6700014d33fc,52,female,1,2,20,Clear_not_profit_side,2,10,1,180,left,right,right,1,-160,1,0.035,13,528,1170,1.17,2.62,0,0,0,0,0
595bf7acc76e6700014d33fc,52,female,1,2,21,Clear_not_profit_side,2,10,1,180,left,right,right,1,-160,1,0.023,13,528,1170,1.17,2.62,0,0,0,0,0
595bf7acc76e6700014d33fc,52,female,1,2,24,Clear_not_profit_side,2,10,0,0,left,right,right,1,20,1,0.025,13,528,1170,1.17,2.62,0,0,0,0,0
595bf7acc76e6700014d33fc,52,female,1,2,27,Clear_not_profit_side,2,10,0,0,left,right,right,1,20,1,0.024,13,528,1170,1.17,2.62,0,0,0,0,0
595bf7acc76e6700014d33fc,52,female,1,2,28,Clear_not_profit_side,2,10,0,0,left,right,right,1,20,1,0.045,13,528,1170,1.17,2.62,0,0,0,0,0
595bf7acc76e6700014d33fc,52,female,1,2,31,Clear_not_profit_side,2,10,0,0,left,right,right,1,20,1,0.027999999999999997,13,528,1170,1.17,2.62,0,0,0,0,0
595bf7acc76e6700014d33fc,52,female,1,2,34,Clear_not_profit_side,2,10,0,0,left,right,right,1,20,1,0.026000000000000002,13,528,1170,1.17,2.62,0,0,0,0,0
595bf7acc76e6700014d33fc,52,female,1,2,36,Clear_not_profit_side,2,10,1,180,left,right,right,1,-160,1,0.03,13,528,1170,1.17,2.62,0,0,0,0,0
595bf7acc76e6700014d33fc,52,female,1,2,42,Clear_not_profit_side,2,10,0,0,left,right,right,1,20,1,0.024,13,528,1170,1.17,2.62,0,0,0,0,0
595bf7acc76e6700014d33fc,52,female,1,2,46,Clear_not_profit_side,2,10,0,0,left,right,right,1,20,1,0.037000000000000005,13,528,1170,1.17,2.62,0,0,0,0,0
595bf7acc76e6700014d33fc,52,female,1,2,52,Clear_not_profit_side,2,10,1,180,left,right,right,1,-160,1,0.027000000000000003,13,528,1170,1.17,2.62,0,0,0,0,0
595bf7acc76e6700014d33fc,52,female,1,2,54,Clear_not_profit_side,2,10,0,0,left,right,right,1,20,1,0.032,13,528,1170,1.17,2.62,0,0,0,0,0
595bf7acc76e6700014d33fc,52,female,1,2,62,Clear_not_profit_side,2,10,0,0,left,right,right,1,20,1,0.036000000000000004,13,528,1170,1.17,2.62,0,0,0,0,0
595bf7acc76e6700014d33fc,52,female,1,2,63,Clear_not_profit_side,2,10,0,0,left,right,right,1,20,1,0.038,13,528,1170,1.17,2.62,0,0,0,0,0
595bf7acc76e6700014d33fc,52,female,1,2,72,Clear_not_profit_side,2,10,0,0,left,right,right,1,20,1,0.034,13,528,1170,1.17,2.62,0,0,0,0,0
595bf7acc76e6700014d33fc,52,female,1,2,73,Clear_not_profit_side,2,10,0,0,left,right,right,1,20,1,0.027999999999999997,13,528,1170,1.17,2.62,0,0,0,0,0
595bf7acc76e6700014d33fc,52,female,1,2,77,Clear_not_profit_side,2,10,0,0,left,right,right,1,20,1,0.035,13,528,1170,1.17,2.62,0,0,0,0,0
595bf7acc76e6700014d33fc,52,female,1,2,80,Clear_not_profit_side,2,10,0,0,left,right,right,1,20,1,0.034,13,528,1170,1.17,2.62,0,0,0,0,0
595bf7acc76e6700014d33fc,52,female,1,2,81,Clear_not_profit_side,2,10,0,0,left,right,right,1,20,1,0.027999999999999997,13,528,1170,1.17,2.62,0,0,0,0,0
595bf7acc76e6700014d33fc,52,female,1,2,83,Clear_not_profit_side,2,10,0,0,left,right,right,1,20,1,0.031,13,528,1170,1.17,2.62,0,0,0,0,0
595bf7acc76e6700014d33fc,52,female,1,2,88,Clear_not_profit_side,2,10,0,0,left,right,right,1,20,1,0.028999999999999998,13,528,1170,1.17,2.62,0,0,0,0,0
595bf7acc76e6700014d33fc,52,female,1,2,94,Clear_not_profit_side,2,10,0,0,left,right,right,1,20,1,0.040999999999999995,13,528,1170,1.17,2.62,0,0,0,0,0
595bf7acc76e6700014d33fc,52,female,1,2,95,Clear_not_profit_side,2,10,0,0,left,right,right,1,20,1,0.069,13,528,1170,1.17,2.62,0,0,0,0,0
595bf7acc76e6700014d33fc,52,female,1,2,96,Clear_not_profit_side,2,10,0,0,left,right,right,1,20,1,0.019,13,528,1170,1.17,2.62,0,0,0,0,0
595bf7acc76e6700014d33fc,52,female,1,2,97,Clear_not_profit_side,2,10,0,0,left,right,right,1,20,1,0.02,13,528,1170,1.17,2.62,0,0,0,0,0
595bf7acc76e6700014d33fc,52,female,1,2,99,Clear_not_profit_side,2,10,0,0,left,right,right,1,20,1,0.037000000000000005,13,528,1170,1.17,2.62,0,0,0,0,0
59e7276d5de9b000017ed1c1,38,male,0,1,8,Clear_not_profit_side,3,0,0,0,right,left,left,1,2,1,0.316,13,152,325,0.325,1.775,0,0,0,7,0
59e7276d5de9b000017ed1c1,38,male,0,1,13,Clear_not_profit_side,3,0,0,0,right,left,left,1,2,1,0.376,13,152,325,0.325,1.775,0,0,0,7,0
59e7276d5de9b000017ed1c1,38,male,0,1,15,Clear_not_profit_side,3,0,0,0,right,left,left,1,2,1,0.34600000000000003,13,152,325,0.325,1.775,0,0,0,7,0
59e7276d5de9b000017ed1c1,38,male,0,1,17,Clear_not_profit_side,3,0,0,0,right,left,left,1,2,1,0.384,13,152,325,0.325,1.775,0,0,0,7,0
59e7276d5de9b000017ed1c1,38,male,0,1,19,Clear_not_profit_side,3,0,0,0,right,left,left,1,2,1,0.6459999999999999,13,152,325,0.325,1.775,0,0,0,7,0
59e7276d5de9b000017ed1c1,38,male,0,1,21,Clear_not_profit_side,3,0,0,0,right,left,left,1,2,1,0.245,13,152,325,0.325,1.775,0,0,0,7,0
59e7276d5de9b000017ed1c1,38,male,0,1,23,Clear_not_profit_side,3,0,0,0,right,left,right,2,1,0,0.44299999999999995,13,152,325,0.325,1.775,1,1,0,7,0
59e7276d5de9b000017ed1c1,38,male,0,1,28,Clear_not_profit_side,3,0,0,0,right,left,left,1,2,1,0.597,13,152,325,0.325,1.775,0,0,0,7,0
59e7276d5de9b000017ed1c1,38,male,0,1,32,Clear_not_profit_side,3,0,0,0,right,left,right,2,1,0,0.282,13,152,325,0.325,1.775,1,1,0,7,0
59e7276d5de9b000017ed1c1,38,male,0,1,36,Clear_not_profit_side,3,0,0,0,right,left,left,1,2,1,0.4270000000000001,13,152,325,0.325,1.775,0,0,0,7,0
59e7276d5de9b000017ed1c1,38,male,0,1,42,Clear_not_profit_side,3,0,0,0,right,left,left,1,2,1,0.32299999999999995,13,152,325,0.325,1.775,0,0,0,7,0
59e7276d5de9b000017ed1c1,38,male,0,1,45,Clear_not_profit_side,3,0,0,0,right,left,left,1,2,1,0.28800000000000003,13,152,325,0.325,1.775,0,0,0,7,0
59e7276d5de9b000017ed1c1,38,male,0,1,46,Clear_not_profit_side,3,0,0,0,right,left,left,1,2,1,0.24600000000000002,13,152,325,0.325,1.775,0,0,0,7,0
59e7276d5de9b000017ed1c1,38,male,0,1,50,Clear_not_profit_side,3,0,0,0,right,left,left,1,2,1,0.231,13,152,325,0.325,1.775,0,0,0,7,0
59e7276d5de9b000017ed1c1,38,male,0,1,52,Clear_not_profit_side,3,0,0,0,right,left,left,1,2,1,0.26899999999999996,13,152,325,0.325,1.775,0,0,0,7,0
59e7276d5de9b000017ed1c1,38,male,0,1,57,Clear_not_profit_side,3,0,0,0,right,left,left,1,2,1,0.209,13,152,325,0.325,1.775,0,0,0,7,0
59e7276d5de9b000017ed1c1,38,male,0,1,59,Clear_not_profit_side,3,0,0,0,right,left,right,2,1,0,0.331,13,152,325,0.325,1.775,1,1,0,7,0
59e7276d5de9b000017ed1c1,38,male,0,1,60,Clear_not_profit_side,3,0,0,0,right,left,left,1,2,1,0.207,13,152,325,0.325,1.775,0,0,0,7,0
59e7276d5de9b000017ed1c1,38,male,0,1,61,Clear_not_profit_side,3,0,0,0,right,left,left,1,2,1,0.20199999999999999,13,152,325,0.325,1.775,0,0,0,7,0
59e7276d5de9b000017ed1c1,38,male,0,1,65,Clear_not_profit_side,3,0,0,0,right,left,left,1,2,1,0.292,13,152,325,0.325,1.775,0,0,0,7,0
59e7276d5de9b000017ed1c1,38,male,0,1,67,Clear_not_profit_side,3,0,0,0,right,left,left,1,2,1,0.20199999999999999,13,152,325,0.325,1.775,0,0,0,7,0
59e7276d5de9b000017ed1c1,38,male,0,1,68,Clear_not_profit_side,3,0,0,0,right,left,left,1,2,1,0.203,13,152,325,0.325,1.775,0,0,0,7,0
59e7276d5de9b000017ed1c1,38,male,0,1,71,Clear_not_profit_side,3,0,0,0,right,left,right,2,1,0,0.23600000000000002,13,152,325,0.325,1.775,1,1,0,7,0
59e7276d5de9b000017ed1c1,38,male,0,1,76,Clear_not_profit_side,3,0,0,0,right,left,left,1,2,1,0.311,13,152,325,0.325,1.775,0,0,0,7,0
59e7276d5de9b000017ed1c1,38,male,0,1,79,Clear_not_profit_side,3,0,0,0,right,left,left,1,2,1,0.6629999999999999,13,152,325,0.325,1.775,0,0,0,7,0
59e7276d5de9b000017ed1c1,38,male,0,1,81,Clear_not_profit_side,3,0,0,0,right,left,left,1,2,1,0.306,13,152,325,0.325,1.775,0,0,0,7,0
59e7276d5de9b000017ed1c1,38,male,0,1,82,Clear_not_profit_side,3,0,0,0,right,left,left,1,2,1,0.255,13,152,325,0.325,1.775,0,0,0,7,0
59e7276d5de9b000017ed1c1,38,male,0,1,84,Clear_not_profit_side,3,0,0,0,right,left,right,2,1,0,0.396,13,152,325,0.325,1.775,1,1,0,7,0
59e7276d5de9b000017ed1c1,38,male,0,1,85,Clear_not_profit_side,3,0,0,0,right,left,left,1,2,1,0.23399999999999999,13,152,325,0.325,1.775,0,0,0,7,0
59e7276d5de9b000017ed1c1,38,male,0,1,86,Clear_not_profit_side,3,0,0,0,right,left,left,1,2,1,0.19,13,152,325,0.325,1.775,0,0,0,7,0
59e7276d5de9b000017ed1c1,38,male,0,1,90,Clear_not_profit_side,3,0,0,0,right,left,right,2,1,0,0.259,13,152,325,0.325,1.775,1,1,0,7,0
59e7276d5de9b000017ed1c1,38,male,0,1,92,Clear_not_profit_side,3,0,0,0,right,left,right,2,1,0,0.335,13,152,325,0.325,1.775,1,1,0,7,0
59e7276d5de9b000017ed1c1,38,male,0,1,96,Clear_not_profit_side,3,0,0,0,right,left,left,1,2,1,0.24600000000000002,13,152,325,0.325,1.775,0,0,0,7,0
59e7276d5de9b000017ed1c1,38,male,0,1,97,Clear_not_profit_side,3,0,0,0,right,left,left,1,2,1,0.214,13,152,325,0.325,1.775,0,0,0,7,0
59e7276d5de9b000017ed1c1,38,male,0,2,3,Clear_not_profit_side,3,0,0,0,right,left,left,1,2,1,0.22399999999999998,34,173,325,0.325,1.775,0,0,0,0,17
59e7276d5de9b000017ed1c1,38,male,0,2,9,Clear_not_profit_side,3,0,0,0,right,left,left,1,2,1,0.22399999999999998,34,173,325,0.325,1.775,0,0,0,0,17
59e7276d5de9b000017ed1c1,38,male,0,2,12,Clear_not_profit_side,3,0,0,0,right,left,right,2,1,0,0.24100000000000002,34,173,325,0.325,1.775,1,0,1,0,17
59e7276d5de9b000017ed1c1,38,male,0,2,13,Clear_not_profit_side,3,0,0,0,right,left,right,2,1,0,0.28300000000000003,34,173,325,0.325,1.775,1,0,1,0,17
59e7276d5de9b000017ed1c1,38,male,0,2,14,Clear_not_profit_side,3,0,0,0,right,left,right,2,1,0,0.265,34,173,325,0.325,1.775,1,0,1,0,17
59e7276d5de9b000017ed1c1,38,male,0,2,15,Clear_not_profit_side,3,0,0,0,right,left,left,1,2,1,0.282,34,173,325,0.325,1.775,0,0,0,0,17
59e7276d5de9b000017ed1c1,38,male,0,2,17,Clear_not_profit_side,3,0,0,0,right,left,right,2,1,0,0.25,34,173,325,0.325,1.775,1,0,1,0,17
59e7276d5de9b000017ed1c1,38,male,0,2,22,Clear_not_profit_side,3,0,0,0,right,left,left,1,2,1,0.261,34,173,325,0.325,1.775,0,0,0,0,17
59e7276d5de9b000017ed1c1,38,male,0,2,26,Clear_not_profit_side,3,0,0,0,right,left,right,2,1,0,0.24600000000000002,34,173,325,0.325,1.775,1,0,1,0,17
59e7276d5de9b000017ed1c1,38,male,0,2,27,Clear_not_profit_side,3,0,0,0,right,left,right,2,1,0,0.21,34,173,325,0.325,1.775,1,0,1,0,17
59e7276d5de9b000017ed1c1,38,male,0,2,30,Clear_not_profit_side,3,0,0,0,right,left,left,1,2,1,0.22399999999999998,34,173,325,0.325,1.775,0,0,0,0,17
59e7276d5de9b000017ed1c1,38,male,0,2,38,Clear_not_profit_side,3,0,0,0,right,left,left,1,2,1,0.28600000000000003,34,173,325,0.325,1.775,0,0,0,0,17
59e7276d5de9b000017ed1c1,38,male,0,2,40,Clear_not_profit_side,3,0,0,0,right,left,left,1,2,1,0.20600000000000002,34,173,325,0.325,1.775,0,0,0,0,17
59e7276d5de9b000017ed1c1,38,male,0,2,44,Clear_not_profit_side,3,0,0,0,right,left,right,2,1,0,0.267,34,173,325,0.325,1.775,1,0,1,0,17
59e7276d5de9b000017ed1c1,38,male,0,2,53,Clear_not_profit_side,3,0,0,0,right,left,left,1,2,1,0.183,34,173,325,0.325,1.775,0,0,0,0,17
59e7276d5de9b000017ed1c1,38,male,0,2,54,Clear_not_profit_side,3,0,0,0,right,left,left,1,2,1,0.209,34,173,325,0.325,1.775,0,0,0,0,17
59e7276d5de9b000017ed1c1,38,male,0,2,56,Clear_not_profit_side,3,0,0,0,right,left,right,2,1,0,0.192,34,173,325,0.325,1.775,1,0,1,0,17
59e7276d5de9b000017ed1c1,38,male,0,2,57,Clear_not_profit_side,3,0,0,0,right,left,right,2,1,0,0.23199999999999998,34,173,325,0.325,1.775,1,0,1,0,17
59e7276d5de9b000017ed1c1,38,male,0,2,58,Clear_not_profit_side,3,0,0,0,right,left,left,1,2,1,0.213,34,173,325,0.325,1.775,0,0,0,0,17
59e7276d5de9b000017ed1c1,38,male,0,2,59,Clear_not_profit_side,3,0,0,0,right,left,left,1,2,1,10.890999999999998,34,173,325,0.325,1.775,0,0,0,0,17
59e7276d5de9b000017ed1c1,38,male,0,2,62,Clear_not_profit_side,3,0,0,0,right,left,left,1,2,1,0.28600000000000003,34,173,325,0.325,1.775,0,0,0,0,17
59e7276d5de9b000017ed1c1,38,male,0,2,64,Clear_not_profit_side,3,0,0,0,right,left,right,2,1,0,0.215,34,173,325,0.325,1.775,1,0,1,0,17
59e7276d5de9b000017ed1c1,38,male,0,2,71,Clear_not_profit_side,3,0,0,0,right,left,left,1,2,1,0.233,34,173,325,0.325,1.775,0,0,0,0,17
59e7276d5de9b000017ed1c1,38,male,0,2,82,Clear_not_profit_side,3,0,0,0,right,left,right,2,1,0,0.254,34,173,325,0.325,1.775,1,0,1,0,17
59e7276d5de9b000017ed1c1,38,male,0,2,83,Clear_not_profit_side,3,0,0,0,right,left,right,2,1,0,0.22699999999999998,34,173,325,0.325,1.775,1,0,1,0,17
59e7276d5de9b000017ed1c1,38,male,0,2,85,Clear_not_profit_side,3,0,0,0,right,left,right,2,1,0,0.248,34,173,325,0.325,1.775,1,0,1,0,17
59e7276d5de9b000017ed1c1,38,male,0,2,86,Clear_not_profit_side,3,0,0,0,right,left,left,1,2,1,0.29,34,173,325,0.325,1.775,0,0,0,0,17
59e7276d5de9b000017ed1c1,38,male,0,2,88,Clear_not_profit_side,3,0,0,0,right,left,left,1,2,1,0.22,34,173,325,0.325,1.775,0,0,0,0,17
59e7276d5de9b000017ed1c1,38,male,0,2,91,Clear_not_profit_side,3,0,0,0,right,left,right,2,1,0,0.243,34,173,325,0.325,1.775,1,0,1,0,17
59e7276d5de9b000017ed1c1,38,male,0,2,92,Clear_not_profit_side,3,0,0,0,right,left,right,2,1,0,0.5920000000000001,34,173,325,0.325,1.775,1,0,1,0,17
59e7276d5de9b000017ed1c1,38,male,0,2,96,Clear_not_profit_side,3,0,0,0,right,left,right,2,1,0,0.214,34,173,325,0.325,1.775,1,0,1,0,17
59e7276d5de9b000017ed1c1,38,male,0,2,97,Clear_not_profit_side,3,0,0,0,right,left,left,1,2,1,0.444,34,173,325,0.325,1.775,0,0,0,0,17
59e7276d5de9b000017ed1c1,38,male,0,2,98,Clear_not_profit_side,3,0,0,0,right,left,left,1,2,1,0.212,34,173,325,0.325,1.775,0,0,0,0,17
59e7276d5de9b000017ed1c1,38,male,0,2,100,Clear_not_profit_side,3,0,0,0,right,left,right,2,1,0,0.245,34,173,325,0.325,1.775,1,0,1,0,17
5b01842bc573030001c345e0,44,male,1,1,1,Clear_not_profit_side,1,90,1,20,right,left,left,1,0,1,0.196,19,784,1597,1.597,3.047,0,0,0,4,0
5b01842bc573030001c345e0,44,male,1,1,2,Clear_not_profit_side,1,90,1,20,right,left,left,1,0,1,0.187,19,784,1597,1.597,3.047,0,0,0,4,0
5b01842bc573030001c345e0,44,male,1,1,4,Clear_not_profit_side,1,90,1,20,right,left,left,1,0,1,0.27399999999999997,19,784,1597,1.597,3.047,0,0,0,4,0
5b01842bc573030001c345e0,44,male,1,1,15,Clear_not_profit_side,1,90,1,20,right,left,right,0,-19,0,0.233,19,784,1597,1.597,3.047,1,1,0,4,0
5b01842bc573030001c345e0,44,male,1,1,16,Clear_not_profit_side,1,90,1,20,right,left,left,1,0,1,0.168,19,784,1597,1.597,3.047,0,0,0,4,0
5b01842bc573030001c345e0,44,male,1,1,17,Clear_not_profit_side,1,90,1,20,right,left,left,1,0,1,0.155,19,784,1597,1.597,3.047,0,0,0,4,0
5b01842bc573030001c345e0,44,male,1,1,20,Clear_not_profit_side,1,90,1,20,right,left,left,1,0,1,0.163,19,784,1597,1.597,3.047,0,0,0,4,0
5b01842bc573030001c345e0,44,male,1,1,22,Clear_not_profit_side,1,90,1,20,right,left,left,1,0,1,0.214,19,784,1597,1.597,3.047,0,0,0,4,0
5b01842bc573030001c345e0,44,male,1,1,24,Clear_not_profit_side,1,90,1,20,right,left,left,1,0,1,0.141,19,784,1597,1.597,3.047,0,0,0,4,0
5b01842bc573030001c345e0,44,male,1,1,25,Clear_not_profit_side,1,90,1,20,right,left,right,0,-19,0,0.11199999999999999,19,784,1597,1.597,3.047,1,1,0,4,0
5b01842bc573030001c345e0,44,male,1,1,26,Clear_not_profit_side,1,90,1,20,right,left,left,1,0,1,0.155,19,784,1597,1.597,3.047,0,0,0,4,0
5b01842bc573030001c345e0,44,male,1,1,32,Clear_not_profit_side,1,90,1,20,right,left,left,1,0,1,0.134,19,784,1597,1.597,3.047,0,0,0,4,0
5b01842bc573030001c345e0,44,male,1,1,33,Clear_not_profit_side,1,90,1,20,right,left,right,0,-19,0,0.21899999999999997,19,784,1597,1.597,3.047,1,1,0,4,0
5b01842bc573030001c345e0,44,male,1,1,35,Clear_not_profit_side,1,90,1,20,right,left,left,1,0,1,0.11699999999999999,19,784,1597,1.597,3.047,0,0,0,4,0
5b01842bc573030001c345e0,44,male,1,1,42,Clear_not_profit_side,1,90,1,20,right,left,left,1,0,1,0.134,19,784,1597,1.597,3.047,0,0,0,4,0
5b01842bc573030001c345e0,44,male,1,1,44,Clear_not_profit_side,1,90,1,20,right,left,left,1,0,1,0.125,19,784,1597,1.597,3.047,0,0,0,4,0
5b01842bc573030001c345e0,44,male,1,1,49,Clear_not_profit_side,1,90,1,20,right,left,left,1,0,1,0.111,19,784,1597,1.597,3.047,0,0,0,4,0
5b01842bc573030001c345e0,44,male,1,1,55,Clear_not_profit_side,1,90,0,0,right,left,left,1,20,1,0.134,19,784,1597,1.597,3.047,0,0,0,4,0
5b01842bc573030001c345e0,44,male,1,1,64,Clear_not_profit_side,1,90,1,20,right,left,left,1,0,1,0.11,19,784,1597,1.597,3.047,0,0,0,4,0
5b01842bc573030001c345e0,44,male,1,1,65,Clear_not_profit_side,1,90,1,20,right,left,left,1,0,1,0.261,19,784,1597,1.597,3.047,0,0,0,4,0
5b01842bc573030001c345e0,44,male,1,1,68,Clear_not_profit_side,1,90,1,20,right,left,left,1,0,1,0.133,19,784,1597,1.597,3.047,0,0,0,4,0
5b01842bc573030001c345e0,44,male,1,1,69,Clear_not_profit_side,1,90,1,20,right,left,right,0,-19,0,0.314,19,784,1597,1.597,3.047,1,1,0,4,0
5b01842bc573030001c345e0,44,male,1,1,73,Clear_not_profit_side,1,90,1,20,right,left,left,1,0,1,0.20199999999999999,19,784,1597,1.597,3.047,0,0,0,4,0
5b01842bc573030001c345e0,44,male,1,1,75,Clear_not_profit_side,1,90,1,20,right,left,left,1,0,1,0.16399999999999998,19,784,1597,1.597,3.047,0,0,0,4,0
5b01842bc573030001c345e0,44,male,1,1,76,Clear_not_profit_side,1,90,1,20,right,left,left,1,0,1,0.124,19,784,1597,1.597,3.047,0,0,0,4,0
5b01842bc573030001c345e0,44,male,1,1,83,Clear_not_profit_side,1,90,1,20,right,left,left,1,0,1,0.136,19,784,1597,1.597,3.047,0,0,0,4,0
5b01842bc573030001c345e0,44,male,1,1,84,Clear_not_profit_side,1,90,1,20,right,left,left,1,0,1,0.121,19,784,1597,1.597,3.047,0,0,0,4,0
5b01842bc573030001c345e0,44,male,1,1,85,Clear_not_profit_side,1,90,1,20,right,left,left,1,0,1,0.142,19,784,1597,1.597,3.047,0,0,0,4,0
5b01842bc573030001c345e0,44,male,1,1,86,Clear_not_profit_side,1,90,1,20,right,left,left,1,0,1,0.132,19,784,1597,1.597,3.047,0,0,0,4,0
5b01842bc573030001c345e0,44,male,1,1,89,Clear_not_profit_side,1,90,1,20,right,left,left,1,0,1,0.128,19,784,1597,1.597,3.047,0,0,0,4,0
5b01842bc573030001c345e0,44,male,1,1,90,Clear_not_profit_side,1,90,1,20,right,left,left,1,0,1,0.128,19,784,1597,1.597,3.047,0,0,0,4,0
5b01842bc573030001c345e0,44,male,1,1,92,Clear_not_profit_side,1,90,0,0,right,left,left,1,20,1,0.127,19,784,1597,1.597,3.047,0,0,0,4,0
5b01842bc573030001c345e0,44,male,1,1,94,Clear_not_profit_side,1,90,1,20,right,left,left,1,0,1,0.125,19,784,1597,1.597,3.047,0,0,0,4,0
5b01842bc573030001c345e0,44,male,1,1,97,Clear_not_profit_side,1,90,1,20,right,left,left,1,0,1,0.132,19,784,1597,1.597,3.047,0,0,0,4,0
5b01842bc573030001c345e0,44,male,1,2,3,Clear_not_profit_side,1,90,1,20,right,left,left,1,0,1,0.221,10,813,1597,1.597,3.047,0,0,0,0,1
5b01842bc573030001c345e0,44,male,1,2,4,Clear_not_profit_side,1,90,1,20,right,left,left,1,0,1,0.153,10,813,1597,1.597,3.047,0,0,0,0,1
5b01842bc573030001c345e0,44,male,1,2,5,Clear_not_profit_side,1,90,1,20,right,left,left,1,0,1,0.158,10,813,1597,1.597,3.047,0,0,0,0,1
5b01842bc573030001c345e0,44,male,1,2,9,Clear_not_profit_side,1,90,1,20,right,left,left,1,0,1,0.11599999999999999,10,813,1597,1.597,3.047,0,0,0,0,1
5b01842bc573030001c345e0,44,male,1,2,12,Clear_not_profit_side,1,90,0,0,right,left,left,1,20,1,0.145,10,813,1597,1.597,3.047,0,0,0,0,1
5b01842bc573030001c345e0,44,male,1,2,16,Clear_not_profit_side,1,90,1,20,right,left,left,1,0,1,0.11,10,813,1597,1.597,3.047,0,0,0,0,1
5b01842bc573030001c345e0,44,male,1,2,18,Clear_not_profit_side,1,90,0,0,right,left,left,1,20,1,0.113,10,813,1597,1.597,3.047,0,0,0,0,1
5b01842bc573030001c345e0,44,male,1,2,27,Clear_not_profit_side,1,90,1,20,right,left,left,1,0,1,0.145,10,813,1597,1.597,3.047,0,0,0,0,1
5b01842bc573030001c345e0,44,male,1,2,28,Clear_not_profit_side,1,90,1,20,right,left,left,1,0,1,0.136,10,813,1597,1.597,3.047,0,0,0,0,1
5b01842bc573030001c345e0,44,male,1,2,31,Clear_not_profit_side,1,90,1,20,right,left,left,1,0,1,0.128,10,813,1597,1.597,3.047,0,0,0,0,1
5b01842bc573030001c345e0,44,male,1,2,36,Clear_not_profit_side,1,90,1,20,right,left,left,1,0,1,0.121,10,813,1597,1.597,3.047,0,0,0,0,1
5b01842bc573030001c345e0,44,male,1,2,38,Clear_not_profit_side,1,90,1,20,right,left,right,0,-19,0,0.321,10,813,1597,1.597,3.047,1,0,1,0,1
5b01842bc573030001c345e0,44,male,1,2,42,Clear_not_profit_side,1,90,1,20,right,left,left,1,0,1,0.11599999999999999,10,813,1597,1.597,3.047,0,0,0,0,1
5b01842bc573030001c345e0,44,male,1,2,52,Clear_not_profit_side,1,90,1,20,right,left,left,1,0,1,0.19899999999999998,10,813,1597,1.597,3.047,0,0,0,0,1
5b01842bc573030001c345e0,44,male,1,2,58,Clear_not_profit_side,1,90,1,20,right,left,left,1,0,1,0.182,10,813,1597,1.597,3.047,0,0,0,0,1
5b01842bc573030001c345e0,44,male,1,2,60,Clear_not_profit_side,1,90,0,0,right,left,left,1,20,1,0.14,10,813,1597,1.597,3.047,0,0,0,0,1
5b01842bc573030001c345e0,44,male,1,2,64,Clear_not_profit_side,1,90,1,20,right,left,left,1,0,1,0.1,10,813,1597,1.597,3.047,0,0,0,0,1
5b01842bc573030001c345e0,44,male,1,2,66,Clear_not_profit_side,1,90,1,20,right,left,left,1,0,1,0.135,10,813,1597,1.597,3.047,0,0,0,0,1
5b01842bc573030001c345e0,44,male,1,2,68,Clear_not_profit_side,1,90,1,20,right,left,left,1,0,1,0.114,10,813,1597,1.597,3.047,0,0,0,0,1
5b01842bc573030001c345e0,44,male,1,2,70,Clear_not_profit_side,1,90,0,0,right,left,left,1,20,1,0.151,10,813,1597,1.597,3.047,0,0,0,0,1
5b01842bc573030001c345e0,44,male,1,2,71,Clear_not_profit_side,1,90,0,0,right,left,left,1,20,1,0.154,10,813,1597,1.597,3.047,0,0,0,0,1
5b01842bc573030001c345e0,44,male,1,2,73,Clear_not_profit_side,1,90,1,20,right,left,left,1,0,1,0.125,10,813,1597,1.597,3.047,0,0,0,0,1
5b01842bc573030001c345e0,44,male,1,2,74,Clear_not_profit_side,1,90,1,20,right,left,left,1,0,1,0.126,10,813,1597,1.597,3.047,0,0,0,0,1
5b01842bc573030001c345e0,44,male,1,2,76,Clear_not_profit_side,1,90,1,20,right,left,left,1,0,1,0.158,10,813,1597,1.597,3.047,0,0,0,0,1
5b01842bc573030001c345e0,44,male,1,2,80,Clear_not_profit_side,1,90,1,20,right,left,left,1,0,1,0.124,10,813,1597,1.597,3.047,0,0,0,0,1
5b01842bc573030001c345e0,44,male,1,2,83,Clear_not_profit_side,1,90,1,20,right,left,left,1,0,1,0.128,10,813,1597,1.597,3.047,0,0,0,0,1
5b01842bc573030001c345e0,44,male,1,2,84,Clear_not_profit_side,1,90,1,20,right,left,left,1,0,1,0.11900000000000001,10,813,1597,1.597,3.047,0,0,0,0,1
5b01842bc573030001c345e0,44,male,1,2,86,Clear_not_profit_side,1,90,1,20,right,left,left,1,0,1,0.11800000000000001,10,813,1597,1.597,3.047,0,0,0,0,1
5b01842bc573030001c345e0,44,male,1,2,87,Clear_not_profit_side,1,90,1,20,right,left,left,1,0,1,0.131,10,813,1597,1.597,3.047,0,0,0,0,1
5b01842bc573030001c345e0,44,male,1,2,92,Clear_not_profit_side,1,90,0,0,right,left,left,1,20,1,0.11199999999999999,10,813,1597,1.597,3.047,0,0,0,0,1
5b01842bc573030001c345e0,44,male,1,2,95,Clear_not_profit_side,1,90,1,20,right,left,left,1,0,1,0.127,10,813,1597,1.597,3.047,0,0,0,0,1
5b01842bc573030001c345e0,44,male,1,2,97,Clear_not_profit_side,1,90,1,20,right,left,left,1,0,1,0.126,10,813,1597,1.597,3.047,0,0,0,0,1
5b01842bc573030001c345e0,44,male,1,2,99,Clear_not_profit_side,1,90,1,20,right,left,left,1,0,1,0.122,10,813,1597,1.597,3.047,0,0,0,0,1
5b01842bc573030001c345e0,44,male,1,2,100,Clear_not_profit_side,1,90,1,20,right,left,left,1,0,1,0.155,10,813,1597,1.597,3.047,0,0,0,0,1
5c8d2f74e775150016db3700,20,female,0,1,3,Clear_not_profit_side,1,90,1,20,left,right,right,1,0,1,0.188,5,760,1553,1.5530000000000002,3.003,0,0,0,0,0
5c8d2f74e775150016db3700,20,female,0,1,9,Clear_not_profit_side,1,90,1,20,left,right,right,1,0,1,0.205,5,760,1553,1.5530000000000002,3.003,0,0,0,0,0
5c8d2f74e775150016db3700,20,female,0,1,10,Clear_not_profit_side,1,90,1,20,left,right,right,1,0,1,0.221,5,760,1553,1.5530000000000002,3.003,0,0,0,0,0
5c8d2f74e775150016db3700,20,female,0,1,11,Clear_not_profit_side,1,90,1,20,left,right,right,1,0,1,0.358,5,760,1553,1.5530000000000002,3.003,0,0,0,0,0
5c8d2f74e775150016db3700,20,female,0,1,13,Clear_not_profit_side,1,90,1,20,left,right,right,1,0,1,0.18899999999999997,5,760,1553,1.5530000000000002,3.003,0,0,0,0,0
5c8d2f74e775150016db3700,20,female,0,1,16,Clear_not_profit_side,1,90,1,20,left,right,right,1,0,1,0.204,5,760,1553,1.5530000000000002,3.003,0,0,0,0,0
5c8d2f74e775150016db3700,20,female,0,1,21,Clear_not_profit_side,1,90,1,20,left,right,right,1,0,1,0.204,5,760,1553,1.5530000000000002,3.003,0,0,0,0,0
5c8d2f74e775150016db3700,20,female,0,1,24,Clear_not_profit_side,1,90,1,20,left,right,right,1,0,1,0.183,5,760,1553,1.5530000000000002,3.003,0,0,0,0,0
5c8d2f74e775150016db3700,20,female,0,1,31,Clear_not_profit_side,1,90,1,20,left,right,right,1,0,1,0.149,5,760,1553,1.5530000000000002,3.003,0,0,0,0,0
5c8d2f74e775150016db3700,20,female,0,1,35,Clear_not_profit_side,1,90,1,20,left,right,right,1,0,1,0.162,5,760,1553,1.5530000000000002,3.003,0,0,0,0,0
5c8d2f74e775150016db3700,20,female,0,1,38,Clear_not_profit_side,1,90,1,20,left,right,right,1,0,1,0.14800000000000002,5,760,1553,1.5530000000000002,3.003,0,0,0,0,0
5c8d2f74e775150016db3700,20,female,0,1,44,Clear_not_profit_side,1,90,1,20,left,right,right,1,0,1,0.124,5,760,1553,1.5530000000000002,3.003,0,0,0,0,0
5c8d2f74e775150016db3700,20,female,0,1,45,Clear_not_profit_side,1,90,1,20,left,right,right,1,0,1,0.183,5,760,1553,1.5530000000000002,3.003,0,0,0,0,0
5c8d2f74e775150016db3700,20,female,0,1,47,Clear_not_profit_side,1,90,1,20,left,right,right,1,0,1,0.138,5,760,1553,1.5530000000000002,3.003,0,0,0,0,0
5c8d2f74e775150016db3700,20,female,0,1,48,Clear_not_profit_side,1,90,1,20,left,right,right,1,0,1,0.166,5,760,1553,1.5530000000000002,3.003,0,0,0,0,0
5c8d2f74e775150016db3700,20,female,0,1,49,Clear_not_profit_side,1,90,1,20,left,right,right,1,0,1,0.15,5,760,1553,1.5530000000000002,3.003,0,0,0,0,0
5c8d2f74e775150016db3700,20,female,0,1,55,Clear_not_profit_side,1,90,1,20,left,right,right,1,0,1,0.11599999999999999,5,760,1553,1.5530000000000002,3.003,0,0,0,0,0
5c8d2f74e775150016db3700,20,female,0,1,57,Clear_not_profit_side,1,90,1,20,left,right,right,1,0,1,0.134,5,760,1553,1.5530000000000002,3.003,0,0,0,0,0
5c8d2f74e775150016db3700,20,female,0,1,58,Clear_not_profit_side,1,90,1,20,left,right,right,1,0,1,0.146,5,760,1553,1.5530000000000002,3.003,0,0,0,0,0
5c8d2f74e775150016db3700,20,female,0,1,61,Clear_not_profit_side,1,90,1,20,left,right,right,1,0,1,0.13,5,760,1553,1.5530000000000002,3.003,0,0,0,0,0
5c8d2f74e775150016db3700,20,female,0,1,63,Clear_not_profit_side,1,90,1,20,left,right,right,1,0,1,0.14300000000000002,5,760,1553,1.5530000000000002,3.003,0,0,0,0,0
5c8d2f74e775150016db3700,20,female,0,1,65,Clear_not_profit_side,1,90,1,20,left,right,right,1,0,1,0.136,5,760,1553,1.5530000000000002,3.003,0,0,0,0,0
5c8d2f74e775150016db3700,20,female,0,1,67,Clear_not_profit_side,1,90,1,20,left,right,right,1,0,1,0.14,5,760,1553,1.5530000000000002,3.003,0,0,0,0,0
5c8d2f74e775150016db3700,20,female,0,1,68,Clear_not_profit_side,1,90,1,20,left,right,right,1,0,1,0.134,5,760,1553,1.5530000000000002,3.003,0,0,0,0,0
5c8d2f74e775150016db3700,20,female,0,1,71,Clear_not_profit_side,1,90,1,20,left,right,right,1,0,1,0.16,5,760,1553,1.5530000000000002,3.003,0,0,0,0,0
5c8d2f74e775150016db3700,20,female,0,1,72,Clear_not_profit_side,1,90,1,20,left,right,right,1,0,1,0.147,5,760,1553,1.5530000000000002,3.003,0,0,0,0,0
5c8d2f74e775150016db3700,20,female,0,1,76,Clear_not_profit_side,1,90,1,20,left,right,right,1,0,1,0.147,5,760,1553,1.5530000000000002,3.003,0,0,0,0,0
5c8d2f74e775150016db3700,20,female,0,1,77,Clear_not_profit_side,1,90,1,20,left,right,right,1,0,1,0.14400000000000002,5,760,1553,1.5530000000000002,3.003,0,0,0,0,0
5c8d2f74e775150016db3700,20,female,0,1,78,Clear_not_profit_side,1,90,1,20,left,right,right,1,0,1,0.13699999999999998,5,760,1553,1.5530000000000002,3.003,0,0,0,0,0
5c8d2f74e775150016db3700,20,female,0,1,85,Clear_not_profit_side,1,90,1,20,left,right,right,1,0,1,0.13699999999999998,5,760,1553,1.5530000000000002,3.003,0,0,0,0,0
5c8d2f74e775150016db3700,20,female,0,1,88,Clear_not_profit_side,1,90,1,20,left,right,right,1,0,1,0.151,5,760,1553,1.5530000000000002,3.003,0,0,0,0,0
5c8d2f74e775150016db3700,20,female,0,1,89,Clear_not_profit_side,1,90,1,20,left,right,right,1,0,1,0.121,5,760,1553,1.5530000000000002,3.003,0,0,0,0,0
5c8d2f74e775150016db3700,20,female,0,1,92,Clear_not_profit_side,1,90,1,20,left,right,right,1,0,1,0.146,5,760,1553,1.5530000000000002,3.003,0,0,0,0,0
5c8d2f74e775150016db3700,20,female,0,1,93,Clear_not_profit_side,1,90,1,20,left,right,right,1,0,1,0.158,5,760,1553,1.5530000000000002,3.003,0,0,0,0,0
5c8d2f74e775150016db3700,20,female,0,2,3,Clear_not_profit_side,1,90,1,20,left,right,right,1,0,1,0.151,10,793,1553,1.5530000000000002,3.003,0,0,0,0,0
5c8d2f74e775150016db3700,20,female,0,2,4,Clear_not_profit_side,1,90,1,20,left,right,right,1,0,1,0.138,10,793,1553,1.5530000000000002,3.003,0,0,0,0,0
5c8d2f74e775150016db3700,20,female,0,2,5,Clear_not_profit_side,1,90,0,0,left,right,right,1,20,1,0.113,10,793,1553,1.5530000000000002,3.003,0,0,0,0,0
5c8d2f74e775150016db3700,20,female,0,2,9,Clear_not_profit_side,1,90,1,20,left,right,right,1,0,1,0.128,10,793,1553,1.5530000000000002,3.003,0,0,0,0,0
5c8d2f74e775150016db3700,20,female,0,2,10,Clear_not_profit_side,1,90,0,0,left,right,right,1,20,1,0.136,10,793,1553,1.5530000000000002,3.003,0,0,0,0,0
5c8d2f74e775150016db3700,20,female,0,2,11,Clear_not_profit_side,1,90,1,20,left,right,right,1,0,1,0.14,10,793,1553,1.5530000000000002,3.003,0,0,0,0,0
5c8d2f74e775150016db3700,20,female,0,2,14,Clear_not_profit_side,1,90,1,20,left,right,right,1,0,1,0.133,10,793,1553,1.5530000000000002,3.003,0,0,0,0,0
5c8d2f74e775150016db3700,20,female,0,2,21,Clear_not_profit_side,1,90,1,20,left,right,right,1,0,1,0.138,10,793,1553,1.5530000000000002,3.003,0,0,0,0,0
5c8d2f74e775150016db3700,20,female,0,2,25,Clear_not_profit_side,1,90,1,20,left,right,right,1,0,1,0.133,10,793,1553,1.5530000000000002,3.003,0,0,0,0,0
5c8d2f74e775150016db3700,20,female,0,2,28,Clear_not_profit_side,1,90,1,20,left,right,right,1,0,1,0.134,10,793,1553,1.5530000000000002,3.003,0,0,0,0,0
5c8d2f74e775150016db3700,20,female,0,2,35,Clear_not_profit_side,1,90,1,20,left,right,right,1,0,1,0.16,10,793,1553,1.5530000000000002,3.003,0,0,0,0,0
5c8d2f74e775150016db3700,20,female,0,2,37,Clear_not_profit_side,1,90,1,20,left,right,right,1,0,1,0.133,10,793,1553,1.5530000000000002,3.003,0,0,0,0,0
5c8d2f74e775150016db3700,20,female,0,2,39,Clear_not_profit_side,1,90,1,20,left,right,right,1,0,1,0.126,10,793,1553,1.5530000000000002,3.003,0,0,0,0,0
5c8d2f74e775150016db3700,20,female,0,2,41,Clear_not_profit_side,1,90,1,20,left,right,right,1,0,1,0.11900000000000001,10,793,1553,1.5530000000000002,3.003,0,0,0,0,0
5c8d2f74e775150016db3700,20,female,0,2,47,Clear_not_profit_side,1,90,1,20,left,right,right,1,0,1,0.18899999999999997,10,793,1553,1.5530000000000002,3.003,0,0,0,0,0
5c8d2f74e775150016db3700,20,female,0,2,51,Clear_not_profit_side,1,90,1,20,left,right,right,1,0,1,0.125,10,793,1553,1.5530000000000002,3.003,0,0,0,0,0
5c8d2f74e775150016db3700,20,female,0,2,53,Clear_not_profit_side,1,90,1,20,left,right,right,1,0,1,0.11199999999999999,10,793,1553,1.5530000000000002,3.003,0,0,0,0,0
5c8d2f74e775150016db3700,20,female,0,2,54,Clear_not_profit_side,1,90,1,20,left,right,right,1,0,1,0.11900000000000001,10,793,1553,1.5530000000000002,3.003,0,0,0,0,0
5c8d2f74e775150016db3700,20,female,0,2,57,Clear_not_profit_side,1,90,1,20,left,right,right,1,0,1,0.11800000000000001,10,793,1553,1.5530000000000002,3.003,0,0,0,0,0
5c8d2f74e775150016db3700,20,female,0,2,66,Clear_not_profit_side,1,90,1,20,left,right,right,1,0,1,0.147,10,793,1553,1.5530000000000002,3.003,0,0,0,0,0
5c8d2f74e775150016db3700,20,female,0,2,69,Clear_not_profit_side,1,90,1,20,left,right,right,1,0,1,0.128,10,793,1553,1.5530000000000002,3.003,0,0,0,0,0
5c8d2f74e775150016db3700,20,female,0,2,73,Clear_not_profit_side,1,90,1,20,left,right,right,1,0,1,0.138,10,793,1553,1.5530000000000002,3.003,0,0,0,0,0
5c8d2f74e775150016db3700,20,female,0,2,74,Clear_not_profit_side,1,90,1,20,left,right,right,1,0,1,0.11699999999999999,10,793,1553,1.5530000000000002,3.003,0,0,0,0,0
5c8d2f74e775150016db3700,20,female,0,2,75,Clear_not_profit_side,1,90,1,20,left,right,right,1,0,1,0.13,10,793,1553,1.5530000000000002,3.003,0,0,0,0,0
5c8d2f74e775150016db3700,20,female,0,2,77,Clear_not_profit_side,1,90,1,20,left,right,right,1,0,1,0.129,10,793,1553,1.5530000000000002,3.003,0,0,0,0,0
5c8d2f74e775150016db3700,20,female,0,2,78,Clear_not_profit_side,1,90,1,20,left,right,right,1,0,1,0.174,10,793,1553,1.5530000000000002,3.003,0,0,0,0,0
5c8d2f74e775150016db3700,20,female,0,2,82,Clear_not_profit_side,1,90,0,0,left,right,right,1,20,1,0.16699999999999998,10,793,1553,1.5530000000000002,3.003,0,0,0,0,0
5c8d2f74e775150016db3700,20,female,0,2,83,Clear_not_profit_side,1,90,1,20,left,right,right,1,0,1,0.152,10,793,1553,1.5530000000000002,3.003,0,0,0,0,0
5c8d2f74e775150016db3700,20,female,0,2,88,Clear_not_profit_side,1,90,1,20,left,right,right,1,0,1,0.17800000000000002,10,793,1553,1.5530000000000002,3.003,0,0,0,0,0
5c8d2f74e775150016db3700,20,female,0,2,89,Clear_not_profit_side,1,90,1,20,left,right,right,1,0,1,0.273,10,793,1553,1.5530000000000002,3.003,0,0,0,0,0
5c8d2f74e775150016db3700,20,female,0,2,91,Clear_not_profit_side,1,90,0,0,left,right,right,1,20,1,0.168,10,793,1553,1.5530000000000002,3.003,0,0,0,0,0
5c8d2f74e775150016db3700,20,female,0,2,94,Clear_not_profit_side,1,90,1,20,left,right,right,1,0,1,0.165,10,793,1553,1.5530000000000002,3.003,0,0,0,0,0
5c8d2f74e775150016db3700,20,female,0,2,95,Clear_not_profit_side,1,90,1,20,left,right,right,1,0,1,0.132,10,793,1553,1.5530000000000002,3.003,0,0,0,0,0
5c8d2f74e775150016db3700,20,female,0,2,96,Clear_not_profit_side,1,90,1,20,left,right,right,1,0,1,0.141,10,793,1553,1.5530000000000002,3.003,0,0,0,0,0
5c91c01129b394001a4e473b,23,male,1,1,2,Clear_not_profit_side,3,0,0,0,right,left,left,1,2,1,0.552,8,137,283,0.28300000000000003,1.733,0,0,0,0,0
5c91c01129b394001a4e473b,23,male,1,1,6,Clear_not_profit_side,3,0,0,0,right,left,left,1,2,1,0.222,8,137,283,0.28300000000000003,1.733,0,0,0,0,0
5c91c01129b394001a4e473b,23,male,1,1,8,Clear_not_profit_side,3,0,0,0,right,left,left,1,2,1,0.16699999999999998,8,137,283,0.28300000000000003,1.733,0,0,0,0,0
5c91c01129b394001a4e473b,23,male,1,1,9,Clear_not_profit_side,3,0,0,0,right,left,left,1,2,1,0.222,8,137,283,0.28300000000000003,1.733,0,0,0,0,0
5c91c01129b394001a4e473b,23,male,1,1,11,Clear_not_profit_side,3,0,0,0,right,left,left,1,2,1,0.25,8,137,283,0.28300000000000003,1.733,0,0,0,0,0
5c91c01129b394001a4e473b,23,male,1,1,12,Clear_not_profit_side,3,0,0,0,right,left,left,1,2,1,0.162,8,137,283,0.28300000000000003,1.733,0,0,0,0,0
5c91c01129b394001a4e473b,23,male,1,1,13,Clear_not_profit_side,3,0,0,0,right,left,left,1,2,1,0.252,8,137,283,0.28300000000000003,1.733,0,0,0,0,0
5c91c01129b394001a4e473b,23,male,1,1,15,Clear_not_profit_side,3,0,0,0,right,left,left,1,2,1,0.128,8,137,283,0.28300000000000003,1.733,0,0,0,0,0
5c91c01129b394001a4e473b,23,male,1,1,22,Clear_not_profit_side,3,0,0,0,right,left,left,1,2,1,0.152,8,137,283,0.28300000000000003,1.733,0,0,0,0,0
5c91c01129b394001a4e473b,23,male,1,1,23,Clear_not_profit_side,3,0,0,0,right,left,left,1,2,1,0.127,8,137,283,0.28300000000000003,1.733,0,0,0,0,0
5c91c01129b394001a4e473b,23,male,1,1,28,Clear_not_profit_side,3,0,0,0,right,left,left,1,2,1,0.122,8,137,283,0.28300000000000003,1.733,0,0,0,0,0
5c91c01129b394001a4e473b,23,male,1,1,30,Clear_not_profit_side,3,0,0,0,right,left,left,1,2,1,0.133,8,137,283,0.28300000000000003,1.733,0,0,0,0,0
5c91c01129b394001a4e473b,23,male,1,1,35,Clear_not_profit_side,3,0,0,0,right,left,left,1,2,1,0.131,8,137,283,0.28300000000000003,1.733,0,0,0,0,0
5c91c01129b394001a4e473b,23,male,1,1,48,Clear_not_profit_side,3,0,0,0,right,left,left,1,2,1,0.196,8,137,283,0.28300000000000003,1.733,0,0,0,0,0
5c91c01129b394001a4e473b,23,male,1,1,53,Clear_not_profit_side,3,0,0,0,right,left,left,1,2,1,0.187,8,137,283,0.28300000000000003,1.733,0,0,0,0,0
5c91c01129b394001a4e473b,23,male,1,1,56,Clear_not_profit_side,3,0,0,0,right,left,left,1,2,1,0.141,8,137,283,0.28300000000000003,1.733,0,0,0,0,0
5c91c01129b394001a4e473b,23,male,1,1,57,Clear_not_profit_side,3,0,0,0,right,left,left,1,2,1,0.133,8,137,283,0.28300000000000003,1.733,0,0,0,0,0
5c91c01129b394001a4e473b,23,male,1,1,60,Clear_not_profit_side,3,0,0,0,right,left,left,1,2,1,0.161,8,137,283,0.28300000000000003,1.733,0,0,0,0,0
5c91c01129b394001a4e473b,23,male,1,1,63,Clear_not_profit_side,3,0,0,0,right,left,left,1,2,1,0.15,8,137,283,0.28300000000000003,1.733,0,0,0,0,0
5c91c01129b394001a4e473b,23,male,1,1,64,Clear_not_profit_side,3,0,0,0,right,left,left,1,2,1,0.128,8,137,283,0.28300000000000003,1.733,0,0,0,0,0
5c91c01129b394001a4e473b,23,male,1,1,67,Clear_not_profit_side,3,0,0,0,right,left,left,1,2,1,0.139,8,137,283,0.28300000000000003,1.733,0,0,0,0,0
5c91c01129b394001a4e473b,23,male,1,1,68,Clear_not_profit_side,3,0,0,0,right,left,left,1,2,1,0.09300000000000001,8,137,283,0.28300000000000003,1.733,0,0,0,0,0
5c91c01129b394001a4e473b,23,male,1,1,71,Clear_not_profit_side,3,0,0,0,right,left,left,1,2,1,0.198,8,137,283,0.28300000000000003,1.733,0,0,0,0,0
5c91c01129b394001a4e473b,23,male,1,1,74,Clear_not_profit_side,3,0,0,0,right,left,left,1,2,1,0.136,8,137,283,0.28300000000000003,1.733,0,0,0,0,0
5c91c01129b394001a4e473b,23,male,1,1,75,Clear_not_profit_side,3,0,0,0,right,left,left,1,2,1,0.11800000000000001,8,137,283,0.28300000000000003,1.733,0,0,0,0,0
5c91c01129b394001a4e473b,23,male,1,1,77,Clear_not_profit_side,3,0,0,0,right,left,left,1,2,1,0.121,8,137,283,0.28300000000000003,1.733,0,0,0,0,0
5c91c01129b394001a4e473b,23,male,1,1,81,Clear_not_profit_side,3,0,0,0,right,left,left,1,2,1,0.145,8,137,283,0.28300000000000003,1.733,0,0,0,0,0
5c91c01129b394001a4e473b,23,male,1,1,82,Clear_not_profit_side,3,0,0,0,right,left,left,1,2,1,0.13,8,137,283,0.28300000000000003,1.733,0,0,0,0,0
5c91c01129b394001a4e473b,23,male,1,1,83,Clear_not_profit_side,3,0,0,0,right,left,left,1,2,1,0.145,8,137,283,0.28300000000000003,1.733,0,0,0,0,0
5c91c01129b394001a4e473b,23,male,1,1,86,Clear_not_profit_side,3,0,0,0,right,left,left,1,2,1,0.102,8,137,283,0.28300000000000003,1.733,0,0,0,0,0
5c91c01129b394001a4e473b,23,male,1,1,89,Clear_not_profit_side,3,0,0,0,right,left,left,1,2,1,0.138,8,137,283,0.28300000000000003,1.733,0,0,0,0,0
5c91c01129b394001a4e473b,23,male,1,1,93,Clear_not_profit_side,3,0,0,0,right,left,left,1,2,1,0.113,8,137,283,0.28300000000000003,1.733,0,0,0,0,0
5c91c01129b394001a4e473b,23,male,1,1,97,Clear_not_profit_side,3,0,0,0,right,left,left,1,2,1,0.11199999999999999,8,137,283,0.28300000000000003,1.733,0,0,0,0,0
5c91c01129b394001a4e473b,23,male,1,1,100,Clear_not_profit_side,3,0,0,0,right,left,left,1,2,1,0.098,8,137,283,0.28300000000000003,1.733,0,0,0,0,0
5c91c01129b394001a4e473b,23,male,1,2,3,Clear_not_profit_side,3,0,0,0,right,left,left,1,2,1,0.127,9,146,283,0.28300000000000003,1.733,0,0,0,0,0
5c91c01129b394001a4e473b,23,male,1,2,7,Clear_not_profit_side,3,0,0,0,right,left,left,1,2,1,0.09300000000000001,9,146,283,0.28300000000000003,1.733,0,0,0,0,0
5c91c01129b394001a4e473b,23,male,1,2,8,Clear_not_profit_side,3,0,0,0,right,left,left,1,2,1,0.107,9,146,283,0.28300000000000003,1.733,0,0,0,0,0
5c91c01129b394001a4e473b,23,male,1,2,9,Clear_not_profit_side,3,0,0,0,right,left,left,1,2,1,0.105,9,146,283,0.28300000000000003,1.733,0,0,0,0,0
5c91c01129b394001a4e473b,23,male,1,2,13,Clear_not_profit_side,3,0,0,0,right,left,left,1,2,1,0.19399999999999998,9,146,283,0.28300000000000003,1.733,0,0,0,0,0
5c91c01129b394001a4e473b,23,male,1,2,14,Clear_not_profit_side,3,0,0,0,right,left,left,1,2,1,0.124,9,146,283,0.28300000000000003,1.733,0,0,0,0,0
5c91c01129b394001a4e473b,23,male,1,2,17,Clear_not_profit_side,3,0,0,0,right,left,left,1,2,1,0.10800000000000001,9,146,283,0.28300000000000003,1.733,0,0,0,0,0
5c91c01129b394001a4e473b,23,male,1,2,22,Clear_not_profit_side,3,0,0,0,right,left,left,1,2,1,0.122,9,146,283,0.28300000000000003,1.733,0,0,0,0,0
5c91c01129b394001a4e473b,23,male,1,2,25,Clear_not_profit_side,3,0,0,0,right,left,left,1,2,1,0.187,9,146,283,0.28300000000000003,1.733,0,0,0,0,0
5c91c01129b394001a4e473b,23,male,1,2,30,Clear_not_profit_side,3,0,0,0,right,left,left,1,2,1,0.11800000000000001,9,146,283,0.28300000000000003,1.733,0,0,0,0,0
5c91c01129b394001a4e473b,23,male,1,2,36,Clear_not_profit_side,3,0,0,0,right,left,left,1,2,1,0.153,9,146,283,0.28300000000000003,1.733,0,0,0,0,0
5c91c01129b394001a4e473b,23,male,1,2,37,Clear_not_profit_side,3,0,0,0,right,left,left,1,2,1,0.10800000000000001,9,146,283,0.28300000000000003,1.733,0,0,0,0,0
5c91c01129b394001a4e473b,23,male,1,2,38,Clear_not_profit_side,3,0,0,0,right,left,left,1,2,1,0.131,9,146,283,0.28300000000000003,1.733,0,0,0,0,0
5c91c01129b394001a4e473b,23,male,1,2,45,Clear_not_profit_side,3,0,0,0,right,left,left,1,2,1,0.131,9,146,283,0.28300000000000003,1.733,0,0,0,0,0
5c91c01129b394001a4e473b,23,male,1,2,48,Clear_not_profit_side,3,0,0,0,right,left,left,1,2,1,0.129,9,146,283,0.28300000000000003,1.733,0,0,0,0,0
5c91c01129b394001a4e473b,23,male,1,2,52,Clear_not_profit_side,3,0,0,0,right,left,left,1,2,1,0.218,9,146,283,0.28300000000000003,1.733,0,0,0,0,0
5c91c01129b394001a4e473b,23,male,1,2,53,Clear_not_profit_side,3,0,0,0,right,left,left,1,2,1,0.11199999999999999,9,146,283,0.28300000000000003,1.733,0,0,0,0,0
5c91c01129b394001a4e473b,23,male,1,2,54,Clear_not_profit_side,3,0,0,0,right,left,left,1,2,1,0.11599999999999999,9,146,283,0.28300000000000003,1.733,0,0,0,0,0
5c91c01129b394001a4e473b,23,male,1,2,55,Clear_not_profit_side,3,0,0,0,right,left,left,1,2,1,0.134,9,146,283,0.28300000000000003,1.733,0,0,0,0,0
5c91c01129b394001a4e473b,23,male,1,2,57,Clear_not_profit_side,3,0,0,0,right,left,left,1,2,1,0.096,9,146,283,0.28300000000000003,1.733,0,0,0,0,0
5c91c01129b394001a4e473b,23,male,1,2,60,Clear_not_profit_side,3,0,0,0,right,left,left,1,2,1,0.121,9,146,283,0.28300000000000003,1.733,0,0,0,0,0
5c91c01129b394001a4e473b,23,male,1,2,61,Clear_not_profit_side,3,0,0,0,right,left,left,1,2,1,0.11900000000000001,9,146,283,0.28300000000000003,1.733,0,0,0,0,0
5c91c01129b394001a4e473b,23,male,1,2,62,Clear_not_profit_side,3,0,0,0,right,left,left,1,2,1,0.125,9,146,283,0.28300000000000003,1.733,0,0,0,0,0
5c91c01129b394001a4e473b,23,male,1,2,65,Clear_not_profit_side,3,0,0,0,right,left,left,1,2,1,0.107,9,146,283,0.28300000000000003,1.733,0,0,0,0,0
5c91c01129b394001a4e473b,23,male,1,2,66,Clear_not_profit_side,3,0,0,0,right,left,left,1,2,1,0.09300000000000001,9,146,283,0.28300000000000003,1.733,0,0,0,0,0
5c91c01129b394001a4e473b,23,male,1,2,69,Clear_not_profit_side,3,0,0,0,right,left,left,1,2,1,0.142,9,146,283,0.28300000000000003,1.733,0,0,0,0,0
5c91c01129b394001a4e473b,23,male,1,2,72,Clear_not_profit_side,3,0,0,0,right,left,left,1,2,1,0.105,9,146,283,0.28300000000000003,1.733,0,0,0,0,0
5c91c01129b394001a4e473b,23,male,1,2,75,Clear_not_profit_side,3,0,0,0,right,left,left,1,2,1,0.145,9,146,283,0.28300000000000003,1.733,0,0,0,0,0
5c91c01129b394001a4e473b,23,male,1,2,79,Clear_not_profit_side,3,0,0,0,right,left,left,1,2,1,0.115,9,146,283,0.28300000000000003,1.733,0,0,0,0,0
5c91c01129b394001a4e473b,23,male,1,2,81,Clear_not_profit_side,3,0,0,0,right,left,left,1,2,1,0.114,9,146,283,0.28300000000000003,1.733,0,0,0,0,0
5c91c01129b394001a4e473b,23,male,1,2,84,Clear_not_profit_side,3,0,0,0,right,left,left,1,2,1,0.11,9,146,283,0.28300000000000003,1.733,0,0,0,0,0
5c91c01129b394001a4e473b,23,male,1,2,88,Clear_not_profit_side,3,0,0,0,right,left,left,1,2,1,0.132,9,146,283,0.28300000000000003,1.733,0,0,0,0,0
5c91c01129b394001a4e473b,23,male,1,2,91,Clear_not_profit_side,3,0,0,0,right,left,left,1,2,1,0.10300000000000001,9,146,283,0.28300000000000003,1.733,0,0,0,0,0
5c91c01129b394001a4e473b,23,male,1,2,96,Clear_not_profit_side,3,0,0,0,right,left,left,1,2,1,0.111,9,146,283,0.28300000000000003,1.733,0,0,0,0,0
5da6a24a5b8ad1001570f6ae,61,female,1,1,12,Clear_not_profit_side,1,90,1,20,left,right,right,1,0,1,0.193,10,889,1760,1.76,3.21,0,0,0,1,0
5da6a24a5b8ad1001570f6ae,61,female,1,1,17,Clear_not_profit_side,1,90,1,20,left,right,right,1,0,1,0.23199999999999998,10,889,1760,1.76,3.21,0,0,0,1,0
5da6a24a5b8ad1001570f6ae,61,female,1,1,18,Clear_not_profit_side,1,90,1,20,left,right,right,1,0,1,0.244,10,889,1760,1.76,3.21,0,0,0,1,0
5da6a24a5b8ad1001570f6ae,61,female,1,1,19,Clear_not_profit_side,1,90,1,20,left,right,right,1,0,1,0.207,10,889,1760,1.76,3.21,0,0,0,1,0
5da6a24a5b8ad1001570f6ae,61,female,1,1,26,Clear_not_profit_side,1,90,1,20,left,right,right,1,0,1,0.231,10,889,1760,1.76,3.21,0,0,0,1,0
5da6a24a5b8ad1001570f6ae,61,female,1,1,27,Clear_not_profit_side,1,90,1,20,left,right,right,1,0,1,0.175,10,889,1760,1.76,3.21,0,0,0,1,0
5da6a24a5b8ad1001570f6ae,61,female,1,1,29,Clear_not_profit_side,1,90,0,0,left,right,right,1,20,1,0.24600000000000002,10,889,1760,1.76,3.21,0,0,0,1,0
5da6a24a5b8ad1001570f6ae,61,female,1,1,30,Clear_not_profit_side,1,90,1,20,left,right,right,1,0,1,0.185,10,889,1760,1.76,3.21,0,0,0,1,0
5da6a24a5b8ad1001570f6ae,61,female,1,1,36,Clear_not_profit_side,1,90,1,20,left,right,right,1,0,1,0.223,10,889,1760,1.76,3.21,0,0,0,1,0
5da6a24a5b8ad1001570f6ae,61,female,1,1,38,Clear_not_profit_side,1,90,1,20,left,right,right,1,0,1,0.249,10,889,1760,1.76,3.21,0,0,0,1,0
5da6a24a5b8ad1001570f6ae,61,female,1,1,43,Clear_not_profit_side,1,90,1,20,left,right,right,1,0,1,0.31,10,889,1760,1.76,3.21,0,0,0,1,0
5da6a24a5b8ad1001570f6ae,61,female,1,1,44,Clear_not_profit_side,1,90,1,20,left,right,right,1,0,1,0.23,10,889,1760,1.76,3.21,0,0,0,1,0
5da6a24a5b8ad1001570f6ae,61,female,1,1,45,Clear_not_profit_side,1,90,1,20,left,right,right,1,0,1,0.26,10,889,1760,1.76,3.21,0,0,0,1,0
5da6a24a5b8ad1001570f6ae,61,female,1,1,52,Clear_not_profit_side,1,90,1,20,left,right,right,1,0,1,0.313,10,889,1760,1.76,3.21,0,0,0,1,0
5da6a24a5b8ad1001570f6ae,61,female,1,1,54,Clear_not_profit_side,1,90,1,20,left,right,right,1,0,1,0.265,10,889,1760,1.76,3.21,0,0,0,1,0
5da6a24a5b8ad1001570f6ae,61,female,1,1,55,Clear_not_profit_side,1,90,1,20,left,right,right,1,0,1,0.201,10,889,1760,1.76,3.21,0,0,0,1,0
5da6a24a5b8ad1001570f6ae,61,female,1,1,63,Clear_not_profit_side,1,90,1,20,left,right,right,1,0,1,0.252,10,889,1760,1.76,3.21,0,0,0,1,0
5da6a24a5b8ad1001570f6ae,61,female,1,1,64,Clear_not_profit_side,1,90,1,20,left,right,right,1,0,1,0.222,10,889,1760,1.76,3.21,0,0,0,1,0
5da6a24a5b8ad1001570f6ae,61,female,1,1,65,Clear_not_profit_side,1,90,0,0,left,right,right,1,20,1,0.193,10,889,1760,1.76,3.21,0,0,0,1,0
5da6a24a5b8ad1001570f6ae,61,female,1,1,67,Clear_not_profit_side,1,90,0,0,left,right,right,1,20,1,0.27399999999999997,10,889,1760,1.76,3.21,0,0,0,1,0
5da6a24a5b8ad1001570f6ae,61,female,1,1,68,Clear_not_profit_side,1,90,1,20,left,right,right,1,0,1,0.32899999999999996,10,889,1760,1.76,3.21,0,0,0,1,0
5da6a24a5b8ad1001570f6ae,61,female,1,1,70,Clear_not_profit_side,1,90,1,20,left,right,right,1,0,1,0.28800000000000003,10,889,1760,1.76,3.21,0,0,0,1,0
5da6a24a5b8ad1001570f6ae,61,female,1,1,73,Clear_not_profit_side,1,90,0,0,left,right,right,1,20,1,0.28800000000000003,10,889,1760,1.76,3.21,0,0,0,1,0
5da6a24a5b8ad1001570f6ae,61,female,1,1,77,Clear_not_profit_side,1,90,1,20,left,right,right,1,0,1,0.256,10,889,1760,1.76,3.21,0,0,0,1,0
5da6a24a5b8ad1001570f6ae,61,female,1,1,81,Clear_not_profit_side,1,90,1,20,left,right,right,1,0,1,0.187,10,889,1760,1.76,3.21,0,0,0,1,0
5da6a24a5b8ad1001570f6ae,61,female,1,1,86,Clear_not_profit_side,1,90,1,20,left,right,right,1,0,1,0.264,10,889,1760,1.76,3.21,0,0,0,1,0
5da6a24a5b8ad1001570f6ae,61,female,1,1,87,Clear_not_profit_side,1,90,1,20,left,right,right,1,0,1,0.191,10,889,1760,1.76,3.21,0,0,0,1,0
5da6a24a5b8ad1001570f6ae,61,female,1,1,89,Clear_not_profit_side,1,90,1,20,left,right,right,1,0,1,0.266,10,889,1760,1.76,3.21,0,0,0,1,0
5da6a24a5b8ad1001570f6ae,61,female,1,1,90,Clear_not_profit_side,1,90,0,0,left,right,right,1,20,1,0.205,10,889,1760,1.76,3.21,0,0,0,1,0
5da6a24a5b8ad1001570f6ae,61,female,1,1,92,Clear_not_profit_side,1,90,1,20,left,right,right,1,0,1,0.29,10,889,1760,1.76,3.21,0,0,0,1,0
5da6a24a5b8ad1001570f6ae,61,female,1,1,93,Clear_not_profit_side,1,90,1,20,left,right,right,1,0,1,0.22899999999999998,10,889,1760,1.76,3.21,0,0,0,1,0
5da6a24a5b8ad1001570f6ae,61,female,1,1,97,Clear_not_profit_side,1,90,1,20,left,right,right,1,0,1,0.344,10,889,1760,1.76,3.21,0,0,0,1,0
5da6a24a5b8ad1001570f6ae,61,female,1,1,99,Clear_not_profit_side,1,90,0,0,left,right,right,1,20,1,0.2,10,889,1760,1.76,3.21,0,0,0,1,0
5da6a24a5b8ad1001570f6ae,61,female,1,1,100,Clear_not_profit_side,1,90,1,20,left,right,left,0,-19,0,0.242,10,889,1760,1.76,3.21,1,1,0,1,0
5da6a24a5b8ad1001570f6ae,61,female,1,2,3,Clear_not_profit_side,1,90,1,20,left,right,right,1,0,1,0.212,10,871,1760,1.76,3.21,0,0,0,0,1
5da6a24a5b8ad1001570f6ae,61,female,1,2,4,Clear_not_profit_side,1,90,1,20,left,right,right,1,0,1,0.204,10,871,1760,1.76,3.21,0,0,0,0,1
5da6a24a5b8ad1001570f6ae,61,female,1,2,5,Clear_not_profit_side,1,90,1,20,left,right,right,1,0,1,0.185,10,871,1760,1.76,3.21,0,0,0,0,1
5da6a24a5b8ad1001570f6ae,61,female,1,2,8,Clear_not_profit_side,1,90,1,20,left,right,right,1,0,1,0.242,10,871,1760,1.76,3.21,0,0,0,0,1
5da6a24a5b8ad1001570f6ae,61,female,1,2,10,Clear_not_profit_side,1,90,1,20,left,right,right,1,0,1,0.28600000000000003,10,871,1760,1.76,3.21,0,0,0,0,1
5da6a24a5b8ad1001570f6ae,61,female,1,2,15,Clear_not_profit_side,1,90,1,20,left,right,right,1,0,1,0.27699999999999997,10,871,1760,1.76,3.21,0,0,0,0,1
5da6a24a5b8ad1001570f6ae,61,female,1,2,20,Clear_not_profit_side,1,90,1,20,left,right,right,1,0,1,0.25,10,871,1760,1.76,3.21,0,0,0,0,1
5da6a24a5b8ad1001570f6ae,61,female,1,2,22,Clear_not_profit_side,1,90,1,20,left,right,right,1,0,1,0.174,10,871,1760,1.76,3.21,0,0,0,0,1
5da6a24a5b8ad1001570f6ae,61,female,1,2,24,Clear_not_profit_side,1,90,1,20,left,right,right,1,0,1,0.24,10,871,1760,1.76,3.21,0,0,0,0,1
5da6a24a5b8ad1001570f6ae,61,female,1,2,25,Clear_not_profit_side,1,90,1,20,left,right,right,1,0,1,0.193,10,871,1760,1.76,3.21,0,0,0,0,1
5da6a24a5b8ad1001570f6ae,61,female,1,2,26,Clear_not_profit_side,1,90,1,20,left,right,right,1,0,1,0.16899999999999998,10,871,1760,1.76,3.21,0,0,0,0,1
5da6a24a5b8ad1001570f6ae,61,female,1,2,28,Clear_not_profit_side,1,90,0,0,left,right,right,1,20,1,0.16899999999999998,10,871,1760,1.76,3.21,0,0,0,0,1
5da6a24a5b8ad1001570f6ae,61,female,1,2,32,Clear_not_profit_side,1,90,1,20,left,right,right,1,0,1,0.21100000000000002,10,871,1760,1.76,3.21,0,0,0,0,1
5da6a24a5b8ad1001570f6ae,61,female,1,2,34,Clear_not_profit_side,1,90,1,20,left,right,right,1,0,1,0.248,10,871,1760,1.76,3.21,0,0,0,0,1
5da6a24a5b8ad1001570f6ae,61,female,1,2,38,Clear_not_profit_side,1,90,1,20,left,right,right,1,0,1,0.21100000000000002,10,871,1760,1.76,3.21,0,0,0,0,1
5da6a24a5b8ad1001570f6ae,61,female,1,2,40,Clear_not_profit_side,1,90,1,20,left,right,right,1,0,1,0.4270000000000001,10,871,1760,1.76,3.21,0,0,0,0,1
5da6a24a5b8ad1001570f6ae,61,female,1,2,41,Clear_not_profit_side,1,90,1,20,left,right,right,1,0,1,0.165,10,871,1760,1.76,3.21,0,0,0,0,1
5da6a24a5b8ad1001570f6ae,61,female,1,2,44,Clear_not_profit_side,1,90,1,20,left,right,right,1,0,1,0.353,10,871,1760,1.76,3.21,0,0,0,0,1
5da6a24a5b8ad1001570f6ae,61,female,1,2,45,Clear_not_profit_side,1,90,1,20,left,right,right,1,0,1,0.145,10,871,1760,1.76,3.21,0,0,0,0,1
5da6a24a5b8ad1001570f6ae,61,female,1,2,46,Clear_not_profit_side,1,90,1,20,left,right,right,1,0,1,0.18100000000000002,10,871,1760,1.76,3.21,0,0,0,0,1
5da6a24a5b8ad1001570f6ae,61,female,1,2,54,Clear_not_profit_side,1,90,1,20,left,right,left,0,-19,0,0.309,10,871,1760,1.76,3.21,1,0,1,0,1
5da6a24a5b8ad1001570f6ae,61,female,1,2,57,Clear_not_profit_side,1,90,1,20,left,right,right,1,0,1,0.183,10,871,1760,1.76,3.21,0,0,0,0,1
5da6a24a5b8ad1001570f6ae,61,female,1,2,62,Clear_not_profit_side,1,90,1,20,left,right,right,1,0,1,0.21600000000000005,10,871,1760,1.76,3.21,0,0,0,0,1
5da6a24a5b8ad1001570f6ae,61,female,1,2,67,Clear_not_profit_side,1,90,1,20,left,right,right,1,0,1,0.331,10,871,1760,1.76,3.21,0,0,0,0,1
5da6a24a5b8ad1001570f6ae,61,female,1,2,69,Clear_not_profit_side,1,90,1,20,left,right,right,1,0,1,0.27,10,871,1760,1.76,3.21,0,0,0,0,1
5da6a24a5b8ad1001570f6ae,61,female,1,2,71,Clear_not_profit_side,1,90,1,20,left,right,right,1,0,1,0.308,10,871,1760,1.76,3.21,0,0,0,0,1
5da6a24a5b8ad1001570f6ae,61,female,1,2,72,Clear_not_profit_side,1,90,1,20,left,right,right,1,0,1,0.158,10,871,1760,1.76,3.21,0,0,0,0,1
5da6a24a5b8ad1001570f6ae,61,female,1,2,76,Clear_not_profit_side,1,90,1,20,left,right,right,1,0,1,0.28,10,871,1760,1.76,3.21,0,0,0,0,1
5da6a24a5b8ad1001570f6ae,61,female,1,2,77,Clear_not_profit_side,1,90,1,20,left,right,right,1,0,1,0.308,10,871,1760,1.76,3.21,0,0,0,0,1
5da6a24a5b8ad1001570f6ae,61,female,1,2,79,Clear_not_profit_side,1,90,1,20,left,right,right,1,0,1,0.231,10,871,1760,1.76,3.21,0,0,0,0,1
5da6a24a5b8ad1001570f6ae,61,female,1,2,83,Clear_not_profit_side,1,90,1,20,left,right,right,1,0,1,0.193,10,871,1760,1.76,3.21,0,0,0,0,1
5da6a24a5b8ad1001570f6ae,61,female,1,2,86,Clear_not_profit_side,1,90,1,20,left,right,right,1,0,1,0.19,10,871,1760,1.76,3.21,0,0,0,0,1
5da6a24a5b8ad1001570f6ae,61,female,1,2,91,Clear_not_profit_side,1,90,1,20,left,right,right,1,0,1,0.278,10,871,1760,1.76,3.21,0,0,0,0,1
5da6a24a5b8ad1001570f6ae,61,female,1,2,100,Clear_not_profit_side,1,90,1,20,left,right,right,1,0,1,0.34600000000000003,10,871,1760,1.76,3.21,0,0,0,0,1
5ddaf4f37aa0d6a6c2c53af6,27,female,1,1,1,Clear_not_profit_side,2,10,0,0,left,right,right,1,20,1,0.09,25,738,1409,1.409,2.859,0,0,0,11,0
5ddaf4f37aa0d6a6c2c53af6,27,female,1,1,6,Clear_not_profit_side,2,10,0,0,left,right,right,1,20,1,0.055,25,738,1409,1.409,2.859,0,0,0,11,0
5ddaf4f37aa0d6a6c2c53af6,27,female,1,1,7,Clear_not_profit_side,2,10,0,0,left,right,right,1,20,1,0.047,25,738,1409,1.409,2.859,0,0,0,11,0
5ddaf4f37aa0d6a6c2c53af6,27,female,1,1,11,Clear_not_profit_side,2,10,0,0,left,right,left,20,1,0,0.073,25,738,1409,1.409,2.859,1,1,0,11,0
5ddaf4f37aa0d6a6c2c53af6,27,female,1,1,22,Clear_not_profit_side,2,10,0,0,left,right,right,1,20,1,0.055999999999999994,25,738,1409,1.409,2.859,0,0,0,11,0
5ddaf4f37aa0d6a6c2c53af6,27,female,1,1,25,Clear_not_profit_side,2,10,0,0,left,right,right,1,20,1,0.128,25,738,1409,1.409,2.859,0,0,0,11,0
5ddaf4f37aa0d6a6c2c53af6,27,female,1,1,27,Clear_not_profit_side,2,10,0,0,left,right,right,1,20,1,0.055,25,738,1409,1.409,2.859,0,0,0,11,0
5ddaf4f37aa0d6a6c2c53af6,27,female,1,1,36,Clear_not_profit_side,2,10,0,0,left,right,right,1,20,1,0.10400000000000001,25,738,1409,1.409,2.859,0,0,0,11,0
5ddaf4f37aa0d6a6c2c53af6,27,female,1,1,38,Clear_not_profit_side,2,10,0,0,left,right,right,1,20,1,0.1,25,738,1409,1.409,2.859,0,0,0,11,0
5ddaf4f37aa0d6a6c2c53af6,27,female,1,1,40,Clear_not_profit_side,2,10,0,0,left,right,right,1,20,1,0.08,25,738,1409,1.409,2.859,0,0,0,11,0
5ddaf4f37aa0d6a6c2c53af6,27,female,1,1,41,Clear_not_profit_side,2,10,0,0,left,right,left,20,1,0,0.06,25,738,1409,1.409,2.859,1,1,0,11,0
5ddaf4f37aa0d6a6c2c53af6,27,female,1,1,43,Clear_not_profit_side,2,10,1,180,left,right,right,1,-160,1,0.099,25,738,1409,1.409,2.859,0,0,0,11,0
5ddaf4f37aa0d6a6c2c53af6,27,female,1,1,45,Clear_not_profit_side,2,10,0,0,left,right,right,1,20,1,0.078,25,738,1409,1.409,2.859,0,0,0,11,0
5ddaf4f37aa0d6a6c2c53af6,27,female,1,1,46,Clear_not_profit_side,2,10,0,0,left,right,right,1,20,1,0.059000000000000004,25,738,1409,1.409,2.859,0,0,0,11,0
5ddaf4f37aa0d6a6c2c53af6,27,female,1,1,51,Clear_not_profit_side,2,10,0,0,left,right,right,1,20,1,0.077,25,738,1409,1.409,2.859,0,0,0,11,0
5ddaf4f37aa0d6a6c2c53af6,27,female,1,1,52,Clear_not_profit_side,2,10,0,0,left,right,right,1,20,1,0.063,25,738,1409,1.409,2.859,0,0,0,11,0
5ddaf4f37aa0d6a6c2c53af6,27,female,1,1,54,Clear_not_profit_side,2,10,0,0,left,right,left,20,1,0,0.071,25,738,1409,1.409,2.859,1,1,0,11,0
5ddaf4f37aa0d6a6c2c53af6,27,female,1,1,57,Clear_not_profit_side,2,10,1,180,left,right,right,1,-160,1,0.064,25,738,1409,1.409,2.859,0,0,0,11,0
5ddaf4f37aa0d6a6c2c53af6,27,female,1,1,64,Clear_not_profit_side,2,10,0,0,left,right,right,1,20,1,0.06,25,738,1409,1.409,2.859,0,0,0,11,0
5ddaf4f37aa0d6a6c2c53af6,27,female,1,1,67,Clear_not_profit_side,2,10,0,0,left,right,left,20,1,0,0.015,25,738,1409,1.409,2.859,1,1,0,11,0
5ddaf4f37aa0d6a6c2c53af6,27,female,1,1,68,Clear_not_profit_side,2,10,0,0,left,right,left,20,1,0,0.111,25,738,1409,1.409,2.859,1,1,0,11,0
5ddaf4f37aa0d6a6c2c53af6,27,female,1,1,78,Clear_not_profit_side,2,10,1,180,left,right,left,-160,-179,0,0.06,25,738,1409,1.409,2.859,1,1,0,11,0
5ddaf4f37aa0d6a6c2c53af6,27,female,1,1,81,Clear_not_profit_side,2,10,0,0,left,right,right,1,20,1,0.061,25,738,1409,1.409,2.859,0,0,0,11,0
5ddaf4f37aa0d6a6c2c53af6,27,female,1,1,82,Clear_not_profit_side,2,10,0,0,left,right,left,20,1,0,0.065,25,738,1409,1.409,2.859,1,1,0,11,0
5ddaf4f37aa0d6a6c2c53af6,27,female,1,1,83,Clear_not_profit_side,2,10,0,0,left,right,right,1,20,1,0.08,25,738,1409,1.409,2.859,0,0,0,11,0
5ddaf4f37aa0d6a6c2c53af6,27,female,1,1,84,Clear_not_profit_side,2,10,0,0,left,right,left,20,1,0,0.1,25,738,1409,1.409,2.859,1,1,0,11,0
5ddaf4f37aa0d6a6c2c53af6,27,female,1,1,85,Clear_not_profit_side,2,10,0,0,left,right,left,20,1,0,0.07400000000000001,25,738,1409,1.409,2.859,1,1,0,11,0
5ddaf4f37aa0d6a6c2c53af6,27,female,1,1,86,Clear_not_profit_side,2,10,0,0,left,right,right,1,20,1,0.052000000000000005,25,738,1409,1.409,2.859,0,0,0,11,0
5ddaf4f37aa0d6a6c2c53af6,27,female,1,1,88,Clear_not_profit_side,2,10,0,0,left,right,right,1,20,1,0.071,25,738,1409,1.409,2.859,0,0,0,11,0
5ddaf4f37aa0d6a6c2c53af6,27,female,1,1,89,Clear_not_profit_side,2,10,0,0,left,right,left,20,1,0,0.059000000000000004,25,738,1409,1.409,2.859,1,1,0,11,0
5ddaf4f37aa0d6a6c2c53af6,27,female,1,1,94,Clear_not_profit_side,2,10,0,0,left,right,right,1,20,1,0.038,25,738,1409,1.409,2.859,0,0,0,11,0
5ddaf4f37aa0d6a6c2c53af6,27,female,1,1,97,Clear_not_profit_side,2,10,0,0,left,right,right,1,20,1,0.087,25,738,1409,1.409,2.859,0,0,0,11,0
5ddaf4f37aa0d6a6c2c53af6,27,female,1,1,99,Clear_not_profit_side,2,10,0,0,left,right,right,1,20,1,0.046,25,738,1409,1.409,2.859,0,0,0,11,0
5ddaf4f37aa0d6a6c2c53af6,27,female,1,1,100,Clear_not_profit_side,2,10,1,180,left,right,left,-160,-179,0,0.063,25,738,1409,1.409,2.859,1,1,0,11,0
5ddaf4f37aa0d6a6c2c53af6,27,female,1,2,2,Clear_not_profit_side,2,10,0,0,left,right,right,1,20,1,0.045,14,671,1409,1.409,2.859,0,0,0,0,2
5ddaf4f37aa0d6a6c2c53af6,27,female,1,2,7,Clear_not_profit_side,2,10,0,0,left,right,right,1,20,1,0.040999999999999995,14,671,1409,1.409,2.859,0,0,0,0,2
5ddaf4f37aa0d6a6c2c53af6,27,female,1,2,11,Clear_not_profit_side,2,10,0,0,left,right,right,1,20,1,0.077,14,671,1409,1.409,2.859,0,0,0,0,2
5ddaf4f37aa0d6a6c2c53af6,27,female,1,2,17,Clear_not_profit_side,2,10,0,0,left,right,right,1,20,1,0.045,14,671,1409,1.409,2.859,0,0,0,0,2
5ddaf4f37aa0d6a6c2c53af6,27,female,1,2,18,Clear_not_profit_side,2,10,1,180,left,right,left,-160,-179,0,0.085,14,671,1409,1.409,2.859,1,0,1,0,2
5ddaf4f37aa0d6a6c2c53af6,27,female,1,2,19,Clear_not_profit_side,2,10,0,0,left,right,right,1,20,1,0.07,14,671,1409,1.409,2.859,0,0,0,0,2
5ddaf4f37aa0d6a6c2c53af6,27,female,1,2,21,Clear_not_profit_side,2,10,1,180,left,right,right,1,-160,1,0.061,14,671,1409,1.409,2.859,0,0,0,0,2
5ddaf4f37aa0d6a6c2c53af6,27,female,1,2,30,Clear_not_profit_side,2,10,0,0,left,right,right,1,20,1,0.042,14,671,1409,1.409,2.859,0,0,0,0,2
5ddaf4f37aa0d6a6c2c53af6,27,female,1,2,31,Clear_not_profit_side,2,10,0,0,left,right,right,1,20,1,0.063,14,671,1409,1.409,2.859,0,0,0,0,2
5ddaf4f37aa0d6a6c2c53af6,27,female,1,2,33,Clear_not_profit_side,2,10,0,0,left,right,right,1,20,1,0.177,14,671,1409,1.409,2.859,0,0,0,0,2
5ddaf4f37aa0d6a6c2c53af6,27,female,1,2,38,Clear_not_profit_side,2,10,0,0,left,right,right,1,20,1,0.035,14,671,1409,1.409,2.859,0,0,0,0,2
5ddaf4f37aa0d6a6c2c53af6,27,female,1,2,40,Clear_not_profit_side,2,10,0,0,left,right,right,1,20,1,0.049,14,671,1409,1.409,2.859,0,0,0,0,2
5ddaf4f37aa0d6a6c2c53af6,27,female,1,2,41,Clear_not_profit_side,2,10,0,0,left,right,right,1,20,1,0.07200000000000001,14,671,1409,1.409,2.859,0,0,0,0,2
5ddaf4f37aa0d6a6c2c53af6,27,female,1,2,42,Clear_not_profit_side,2,10,0,0,left,right,right,1,20,1,0.048,14,671,1409,1.409,2.859,0,0,0,0,2
5ddaf4f37aa0d6a6c2c53af6,27,female,1,2,44,Clear_not_profit_side,2,10,0,0,left,right,right,1,20,1,0.039,14,671,1409,1.409,2.859,0,0,0,0,2
5ddaf4f37aa0d6a6c2c53af6,27,female,1,2,45,Clear_not_profit_side,2,10,0,0,left,right,right,1,20,1,0.048,14,671,1409,1.409,2.859,0,0,0,0,2
5ddaf4f37aa0d6a6c2c53af6,27,female,1,2,47,Clear_not_profit_side,2,10,0,0,left,right,right,1,20,1,0.040999999999999995,14,671,1409,1.409,2.859,0,0,0,0,2
5ddaf4f37aa0d6a6c2c53af6,27,female,1,2,49,Clear_not_profit_side,2,10,0,0,left,right,right,1,20,1,0.038,14,671,1409,1.409,2.859,0,0,0,0,2
5ddaf4f37aa0d6a6c2c53af6,27,female,1,2,51,Clear_not_profit_side,2,10,0,0,left,right,right,1,20,1,0.038,14,671,1409,1.409,2.859,0,0,0,0,2
5ddaf4f37aa0d6a6c2c53af6,27,female,1,2,53,Clear_not_profit_side,2,10,0,0,left,right,left,20,1,0,0.046,14,671,1409,1.409,2.859,1,0,1,0,2
5ddaf4f37aa0d6a6c2c53af6,27,female,1,2,54,Clear_not_profit_side,2,10,1,180,left,right,right,1,-160,1,0.053,14,671,1409,1.409,2.859,0,0,0,0,2
5ddaf4f37aa0d6a6c2c53af6,27,female,1,2,60,Clear_not_profit_side,2,10,0,0,left,right,right,1,20,1,0.042,14,671,1409,1.409,2.859,0,0,0,0,2
5ddaf4f37aa0d6a6c2c53af6,27,female,1,2,62,Clear_not_profit_side,2,10,0,0,left,right,right,1,20,1,0.049,14,671,1409,1.409,2.859,0,0,0,0,2
5ddaf4f37aa0d6a6c2c53af6,27,female,1,2,68,Clear_not_profit_side,2,10,0,0,left,right,right,1,20,1,0.032,14,671,1409,1.409,2.859,0,0,0,0,2
5ddaf4f37aa0d6a6c2c53af6,27,female,1,2,72,Clear_not_profit_side,2,10,0,0,left,right,right,1,20,1,0.04,14,671,1409,1.409,2.859,0,0,0,0,2
5ddaf4f37aa0d6a6c2c53af6,27,female,1,2,75,Clear_not_profit_side,2,10,0,0,left,right,right,1,20,1,0.078,14,671,1409,1.409,2.859,0,0,0,0,2
5ddaf4f37aa0d6a6c2c53af6,27,female,1,2,78,Clear_not_profit_side,2,10,0,0,left,right,right,1,20,1,0.035,14,671,1409,1.409,2.859,0,0,0,0,2
5ddaf4f37aa0d6a6c2c53af6,27,female,1,2,81,Clear_not_profit_side,2,10,0,0,left,right,right,1,20,1,0.06,14,671,1409,1.409,2.859,0,0,0,0,2
5ddaf4f37aa0d6a6c2c53af6,27,female,1,2,83,Clear_not_profit_side,2,10,1,180,left,right,right,1,-160,1,0.051,14,671,1409,1.409,2.859,0,0,0,0,2
5ddaf4f37aa0d6a6c2c53af6,27,female,1,2,84,Clear_not_profit_side,2,10,0,0,left,right,right,1,20,1,0.043,14,671,1409,1.409,2.859,0,0,0,0,2
5ddaf4f37aa0d6a6c2c53af6,27,female,1,2,85,Clear_not_profit_side,2,10,0,0,left,right,right,1,20,1,0.042,14,671,1409,1.409,2.859,0,0,0,0,2
5ddaf4f37aa0d6a6c2c53af6,27,female,1,2,90,Clear_not_profit_side,2,10,0,0,left,right,right,1,20,1,0.052000000000000005,14,671,1409,1.409,2.859,0,0,0,0,2
5ddaf4f37aa0d6a6c2c53af6,27,female,1,2,94,Clear_not_profit_side,2,10,0,0,left,right,right,1,20,1,0.047,14,671,1409,1.409,2.859,0,0,0,0,2
5ddaf4f37aa0d6a6c2c53af6,27,female,1,2,99,Clear_not_profit_side,2,10,0,0,left,right,right,1,20,1,0.046,14,671,1409,1.409,2.859,0,0,0,0,2
5e3974014e49b0000aea3d11,21,female,1,1,1,Clear_not_profit_side,3,0,0,0,right,left,left,1,2,1,0.852,17,158,320,0.32,1.77,0,0,0,2,0
5e3974014e49b0000aea3d11,21,female,1,1,5,Clear_not_profit_side,3,0,0,0,right,left,left,1,2,1,0.247,17,158,320,0.32,1.77,0,0,0,2,0
5e3974014e49b0000aea3d11,21,female,1,1,6,Clear_not_profit_side,3,0,0,0,right,left,left,1,2,1,0.28300000000000003,17,158,320,0.32,1.77,0,0,0,2,0
5e3974014e49b0000aea3d11,21,female,1,1,7,Clear_not_profit_side,3,0,0,0,right,left,right,2,1,0,0.276,17,158,320,0.32,1.77,1,1,0,2,0
5e3974014e49b0000aea3d11,21,female,1,1,11,Clear_not_profit_side,3,0,0,0,right,left,left,1,2,1,0.198,17,158,320,0.32,1.77,0,0,0,2,0
5e3974014e49b0000aea3d11,21,female,1,1,12,Clear_not_profit_side,3,0,0,0,right,left,left,1,2,1,0.14400000000000002,17,158,320,0.32,1.77,0,0,0,2,0
5e3974014e49b0000aea3d11,21,female,1,1,16,Clear_not_profit_side,3,0,0,0,right,left,left,1,2,1,0.168,17,158,320,0.32,1.77,0,0,0,2,0
5e3974014e49b0000aea3d11,21,female,1,1,22,Clear_not_profit_side,3,0,0,0,right,left,right,2,1,0,0.207,17,158,320,0.32,1.77,1,1,0,2,0
5e3974014e49b0000aea3d11,21,female,1,1,24,Clear_not_profit_side,3,0,0,0,right,left,left,1,2,1,0.14400000000000002,17,158,320,0.32,1.77,0,0,0,2,0
5e3974014e49b0000aea3d11,21,female,1,1,25,Clear_not_profit_side,3,0,0,0,right,left,left,1,2,1,0.11199999999999999,17,158,320,0.32,1.77,0,0,0,2,0
5e3974014e49b0000aea3d11,21,female,1,1,26,Clear_not_profit_side,3,0,0,0,right,left,left,1,2,1,0.131,17,158,320,0.32,1.77,0,0,0,2,0
5e3974014e49b0000aea3d11,21,female,1,1,31,Clear_not_profit_side,3,0,0,0,right,left,left,1,2,1,0.149,17,158,320,0.32,1.77,0,0,0,2,0
5e3974014e49b0000aea3d11,21,female,1,1,37,Clear_not_profit_side,3,0,0,0,right,left,left,1,2,1,0.138,17,158,320,0.32,1.77,0,0,0,2,0
5e3974014e49b0000aea3d11,21,female,1,1,41,Clear_not_profit_side,3,0,0,0,right,left,left,1,2,1,0.22899999999999998,17,158,320,0.32,1.77,0,0,0,2,0
5e3974014e49b0000aea3d11,21,female,1,1,43,Clear_not_profit_side,3,0,0,0,right,left,left,1,2,1,0.15,17,158,320,0.32,1.77,0,0,0,2,0
5e3974014e49b0000aea3d11,21,female,1,1,47,Clear_not_profit_side,3,0,0,0,right,left,left,1,2,1,0.142,17,158,320,0.32,1.77,0,0,0,2,0
5e3974014e49b0000aea3d11,21,female,1,1,48,Clear_not_profit_side,3,0,0,0,right,left,left,1,2,1,0.161,17,158,320,0.32,1.77,0,0,0,2,0
5e3974014e49b0000aea3d11,21,female,1,1,51,Clear_not_profit_side,3,0,0,0,right,left,left,1,2,1,0.23199999999999998,17,158,320,0.32,1.77,0,0,0,2,0
5e3974014e49b0000aea3d11,21,female,1,1,57,Clear_not_profit_side,3,0,0,0,right,left,left,1,2,1,0.132,17,158,320,0.32,1.77,0,0,0,2,0
5e3974014e49b0000aea3d11,21,female,1,1,59,Clear_not_profit_side,3,0,0,0,right,left,left,1,2,1,0.15,17,158,320,0.32,1.77,0,0,0,2,0
5e3974014e49b0000aea3d11,21,female,1,1,67,Clear_not_profit_side,3,0,0,0,right,left,left,1,2,1,0.111,17,158,320,0.32,1.77,0,0,0,2,0
5e3974014e49b0000aea3d11,21,female,1,1,68,Clear_not_profit_side,3,0,0,0,right,left,left,1,2,1,0.11800000000000001,17,158,320,0.32,1.77,0,0,0,2,0
5e3974014e49b0000aea3d11,21,female,1,1,69,Clear_not_profit_side,3,0,0,0,right,left,left,1,2,1,0.12,17,158,320,0.32,1.77,0,0,0,2,0
5e3974014e49b0000aea3d11,21,female,1,1,71,Clear_not_profit_side,3,0,0,0,right,left,left,1,2,1,0.12,17,158,320,0.32,1.77,0,0,0,2,0
5e3974014e49b0000aea3d11,21,female,1,1,72,Clear_not_profit_side,3,0,0,0,right,left,left,1,2,1,0.154,17,158,320,0.32,1.77,0,0,0,2,0
5e3974014e49b0000aea3d11,21,female,1,1,76,Clear_not_profit_side,3,0,0,0,right,left,left,1,2,1,0.12,17,158,320,0.32,1.77,0,0,0,2,0
5e3974014e49b0000aea3d11,21,female,1,1,79,Clear_not_profit_side,3,0,0,0,right,left,left,1,2,1,0.182,17,158,320,0.32,1.77,0,0,0,2,0
5e3974014e49b0000aea3d11,21,female,1,1,80,Clear_not_profit_side,3,0,0,0,right,left,left,1,2,1,0.15,17,158,320,0.32,1.77,0,0,0,2,0
5e3974014e49b0000aea3d11,21,female,1,1,81,Clear_not_profit_side,3,0,0,0,right,left,left,1,2,1,0.13,17,158,320,0.32,1.77,0,0,0,2,0
5e3974014e49b0000aea3d11,21,female,1,1,82,Clear_not_profit_side,3,0,0,0,right,left,left,1,2,1,0.139,17,158,320,0.32,1.77,0,0,0,2,0
5e3974014e49b0000aea3d11,21,female,1,1,84,Clear_not_profit_side,3,0,0,0,right,left,left,1,2,1,0.133,17,158,320,0.32,1.77,0,0,0,2,0
5e3974014e49b0000aea3d11,21,female,1,1,86,Clear_not_profit_side,3,0,0,0,right,left,left,1,2,1,0.107,17,158,320,0.32,1.77,0,0,0,2,0
5e3974014e49b0000aea3d11,21,female,1,1,92,Clear_not_profit_side,3,0,0,0,right,left,left,1,2,1,0.15,17,158,320,0.32,1.77,0,0,0,2,0
5e3974014e49b0000aea3d11,21,female,1,1,99,Clear_not_profit_side,3,0,0,0,right,left,left,1,2,1,0.126,17,158,320,0.32,1.77,0,0,0,2,0
5e3974014e49b0000aea3d11,21,female,1,2,3,Clear_not_profit_side,3,0,0,0,right,left,left,1,2,1,0.13699999999999998,21,162,320,0.32,1.77,0,0,0,0,4
5e3974014e49b0000aea3d11,21,female,1,2,4,Clear_not_profit_side,3,0,0,0,right,left,left,1,2,1,0.11699999999999999,21,162,320,0.32,1.77,0,0,0,0,4
5e3974014e49b0000aea3d11,21,female,1,2,6,Clear_not_profit_side,3,0,0,0,right,left,right,2,1,0,0.151,21,162,320,0.32,1.77,1,0,1,0,4
5e3974014e49b0000aea3d11,21,female,1,2,7,Clear_not_profit_side,3,0,0,0,right,left,left,1,2,1,0.105,21,162,320,0.32,1.77,0,0,0,0,4
5e3974014e49b0000aea3d11,21,female,1,2,8,Clear_not_profit_side,3,0,0,0,right,left,left,1,2,1,0.11599999999999999,21,162,320,0.32,1.77,0,0,0,0,4
5e3974014e49b0000aea3d11,21,female,1,2,9,Clear_not_profit_side,3,0,0,0,right,left,left,1,2,1,0.126,21,162,320,0.32,1.77,0,0,0,0,4
5e3974014e49b0000aea3d11,21,female,1,2,19,Clear_not_profit_side,3,0,0,0,right,left,left,1,2,1,0.11199999999999999,21,162,320,0.32,1.77,0,0,0,0,4
5e3974014e49b0000aea3d11,21,female,1,2,22,Clear_not_profit_side,3,0,0,0,right,left,left,1,2,1,0.12,21,162,320,0.32,1.77,0,0,0,0,4
5e3974014e49b0000aea3d11,21,female,1,2,32,Clear_not_profit_side,3,0,0,0,right,left,left,1,2,1,0.136,21,162,320,0.32,1.77,0,0,0,0,4
5e3974014e49b0000aea3d11,21,female,1,2,33,Clear_not_profit_side,3,0,0,0,right,left,left,1,2,1,0.111,21,162,320,0.32,1.77,0,0,0,0,4
5e3974014e49b0000aea3d11,21,female,1,2,34,Clear_not_profit_side,3,0,0,0,right,left,left,1,2,1,0.121,21,162,320,0.32,1.77,0,0,0,0,4
5e3974014e49b0000aea3d11,21,female,1,2,37,Clear_not_profit_side,3,0,0,0,right,left,left,1,2,1,0.115,21,162,320,0.32,1.77,0,0,0,0,4
5e3974014e49b0000aea3d11,21,female,1,2,40,Clear_not_profit_side,3,0,0,0,right,left,right,2,1,0,0.16,21,162,320,0.32,1.77,1,0,1,0,4
5e3974014e49b0000aea3d11,21,female,1,2,44,Clear_not_profit_side,3,0,0,0,right,left,left,1,2,1,0.11800000000000001,21,162,320,0.32,1.77,0,0,0,0,4
5e3974014e49b0000aea3d11,21,female,1,2,48,Clear_not_profit_side,3,0,0,0,right,left,left,1,2,1,0.149,21,162,320,0.32,1.77,0,0,0,0,4
5e3974014e49b0000aea3d11,21,female,1,2,55,Clear_not_profit_side,3,0,0,0,right,left,left,1,2,1,0.133,21,162,320,0.32,1.77,0,0,0,0,4
5e3974014e49b0000aea3d11,21,female,1,2,63,Clear_not_profit_side,3,0,0,0,right,left,left,1,2,1,0.111,21,162,320,0.32,1.77,0,0,0,0,4
5e3974014e49b0000aea3d11,21,female,1,2,64,Clear_not_profit_side,3,0,0,0,right,left,left,1,2,1,0.098,21,162,320,0.32,1.77,0,0,0,0,4
5e3974014e49b0000aea3d11,21,female,1,2,66,Clear_not_profit_side,3,0,0,0,right,left,right,2,1,0,0.09300000000000001,21,162,320,0.32,1.77,1,0,1,0,4
5e3974014e49b0000aea3d11,21,female,1,2,67,Clear_not_profit_side,3,0,0,0,right,left,left,1,2,1,0.12300000000000001,21,162,320,0.32,1.77,0,0,0,0,4
5e3974014e49b0000aea3d11,21,female,1,2,68,Clear_not_profit_side,3,0,0,0,right,left,left,1,2,1,0.122,21,162,320,0.32,1.77,0,0,0,0,4
5e3974014e49b0000aea3d11,21,female,1,2,77,Clear_not_profit_side,3,0,0,0,right,left,left,1,2,1,0.10300000000000001,21,162,320,0.32,1.77,0,0,0,0,4
5e3974014e49b0000aea3d11,21,female,1,2,78,Clear_not_profit_side,3,0,0,0,right,left,left,1,2,1,0.08800000000000001,21,162,320,0.32,1.77,0,0,0,0,4
5e3974014e49b0000aea3d11,21,female,1,2,81,Clear_not_profit_side,3,0,0,0,right,left,left,1,2,1,0.124,21,162,320,0.32,1.77,0,0,0,0,4
5e3974014e49b0000aea3d11,21,female,1,2,83,Clear_not_profit_side,3,0,0,0,right,left,left,1,2,1,0.1,21,162,320,0.32,1.77,0,0,0,0,4
5e3974014e49b0000aea3d11,21,female,1,2,86,Clear_not_profit_side,3,0,0,0,right,left,left,1,2,1,0.113,21,162,320,0.32,1.77,0,0,0,0,4
5e3974014e49b0000aea3d11,21,female,1,2,89,Clear_not_profit_side,3,0,0,0,right,left,left,1,2,1,0.109,21,162,320,0.32,1.77,0,0,0,0,4
5e3974014e49b0000aea3d11,21,female,1,2,90,Clear_not_profit_side,3,0,0,0,right,left,right,2,1,0,0.11900000000000001,21,162,320,0.32,1.77,1,0,1,0,4
5e3974014e49b0000aea3d11,21,female,1,2,91,Clear_not_profit_side,3,0,0,0,right,left,left,1,2,1,0.11699999999999999,21,162,320,0.32,1.77,0,0,0,0,4
5e3974014e49b0000aea3d11,21,female,1,2,94,Clear_not_profit_side,3,0,0,0,right,left,left,1,2,1,0.121,21,162,320,0.32,1.77,0,0,0,0,4
5e3974014e49b0000aea3d11,21,female,1,2,95,Clear_not_profit_side,3,0,0,0,right,left,left,1,2,1,0.113,21,162,320,0.32,1.77,0,0,0,0,4
5e3974014e49b0000aea3d11,21,female,1,2,97,Clear_not_profit_side,3,0,0,0,right,left,left,1,2,1,0.092,21,162,320,0.32,1.77,0,0,0,0,4
5e3974014e49b0000aea3d11,21,female,1,2,98,Clear_not_profit_side,3,0,0,0,right,left,left,1,2,1,0.114,21,162,320,0.32,1.77,0,0,0,0,4
5e3974014e49b0000aea3d11,21,female,1,2,99,Clear_not_profit_side,3,0,0,0,right,left,left,1,2,1,0.122,21,162,320,0.32,1.77,0,0,0,0,4
5e760b4d39c441170d9c9f1b,27,female,1,1,1,Clear_not_profit_side,2,10,0,0,right,left,left,1,20,1,0.131,9,434,1313,1.3129999999999995,2.763,0,0,0,0,0
5e760b4d39c441170d9c9f1b,27,female,1,1,4,Clear_not_profit_side,2,10,0,0,right,left,left,1,20,1,0.07400000000000001,9,434,1313,1.3129999999999995,2.763,0,0,0,0,0
5e760b4d39c441170d9c9f1b,27,female,1,1,5,Clear_not_profit_side,2,10,0,0,right,left,left,1,20,1,0.067,9,434,1313,1.3129999999999995,2.763,0,0,0,0,0
5e760b4d39c441170d9c9f1b,27,female,1,1,7,Clear_not_profit_side,2,10,0,0,right,left,left,1,20,1,0.065,9,434,1313,1.3129999999999995,2.763,0,0,0,0,0
5e760b4d39c441170d9c9f1b,27,female,1,1,9,Clear_not_profit_side,2,10,1,180,right,left,left,1,-160,1,0.081,9,434,1313,1.3129999999999995,2.763,0,0,0,0,0
5e760b4d39c441170d9c9f1b,27,female,1,1,19,Clear_not_profit_side,2,10,0,0,right,left,left,1,20,1,0.067,9,434,1313,1.3129999999999995,2.763,0,0,0,0,0
5e760b4d39c441170d9c9f1b,27,female,1,1,26,Clear_not_profit_side,2,10,0,0,right,left,left,1,20,1,0.059000000000000004,9,434,1313,1.3129999999999995,2.763,0,0,0,0,0
5e760b4d39c441170d9c9f1b,27,female,1,1,28,Clear_not_profit_side,2,10,0,0,right,left,left,1,20,1,0.055,9,434,1313,1.3129999999999995,2.763,0,0,0,0,0
5e760b4d39c441170d9c9f1b,27,female,1,1,31,Clear_not_profit_side,2,10,0,0,right,left,left,1,20,1,0.053,9,434,1313,1.3129999999999995,2.763,0,0,0,0,0
5e760b4d39c441170d9c9f1b,27,female,1,1,36,Clear_not_profit_side,2,10,0,0,right,left,left,1,20,1,0.081,9,434,1313,1.3129999999999995,2.763,0,0,0,0,0
5e760b4d39c441170d9c9f1b,27,female,1,1,37,Clear_not_profit_side,2,10,0,0,right,left,left,1,20,1,0.079,9,434,1313,1.3129999999999995,2.763,0,0,0,0,0
5e760b4d39c441170d9c9f1b,27,female,1,1,44,Clear_not_profit_side,2,10,0,0,right,left,left,1,20,1,0.081,9,434,1313,1.3129999999999995,2.763,0,0,0,0,0
5e760b4d39c441170d9c9f1b,27,female,1,1,46,Clear_not_profit_side,2,10,0,0,right,left,left,1,20,1,0.06,9,434,1313,1.3129999999999995,2.763,0,0,0,0,0
5e760b4d39c441170d9c9f1b,27,female,1,1,48,Clear_not_profit_side,2,10,0,0,right,left,left,1,20,1,0.057,9,434,1313,1.3129999999999995,2.763,0,0,0,0,0
5e760b4d39c441170d9c9f1b,27,female,1,1,52,Clear_not_profit_side,2,10,0,0,right,left,left,1,20,1,0.069,9,434,1313,1.3129999999999995,2.763,0,0,0,0,0
5e760b4d39c441170d9c9f1b,27,female,1,1,55,Clear_not_profit_side,2,10,0,0,right,left,left,1,20,1,0.055999999999999994,9,434,1313,1.3129999999999995,2.763,0,0,0,0,0
5e760b4d39c441170d9c9f1b,27,female,1,1,56,Clear_not_profit_side,2,10,0,0,right,left,left,1,20,1,0.06,9,434,1313,1.3129999999999995,2.763,0,0,0,0,0
5e760b4d39c441170d9c9f1b,27,female,1,1,57,Clear_not_profit_side,2,10,1,180,right,left,left,1,-160,1,0.078,9,434,1313,1.3129999999999995,2.763,0,0,0,0,0
