user_id,age,gender,attention,block_number,trial_number,trial_type,conditions,p_inspection,inspection,fine_size,profitable_side,true_side,choice,trial_payoff,alternative_payoff,choice_correct,rt_choice,block_errors,final_errors,block_payoff,final_payoff,error,b1_cheating,b2_cheating,b1_sum,b2_sum
5af478d820299700016d0748,30,female,1,1,6,Ambigous_left,1,90,1,20,right,left,left,1,0,1,0.34700000000000003,16,24,559,1240,0,0,0,7,0
5af478d820299700016d0748,30,female,1,1,7,Ambigous_left,1,90,1,20,right,left,right,0,-19,0,0.292,16,24,559,1240,1,1,0,7,0
5af478d820299700016d0748,30,female,1,1,8,Ambigous_left,1,90,1,20,right,left,left,1,0,1,0.514,16,24,559,1240,0,0,0,7,0
5af478d820299700016d0748,30,female,1,1,11,Ambigous_left,1,90,1,20,right,left,left,1,0,1,0.261,16,24,559,1240,0,0,0,7,0
5af478d820299700016d0748,30,female,1,1,15,Ambigous_left,1,90,1,20,right,left,right,0,-19,0,0.435,16,24,559,1240,1,1,0,7,0
5af478d820299700016d0748,30,female,1,1,28,Ambigous_left,1,90,1,20,right,left,left,1,0,1,0.181,16,24,559,1240,0,0,0,7,0
5af478d820299700016d0748,30,female,1,1,30,Ambigous_left,1,90,1,20,right,left,left,1,0,1,0.368,16,24,559,1240,0,0,0,7,0
5af478d820299700016d0748,30,female,1,1,33,Ambigous_left,1,90,1,20,right,left,right,0,-19,0,0.359,16,24,559,1240,1,1,0,7,0
5af478d820299700016d0748,30,female,1,1,37,Ambigous_left,1,90,0,0,right,left,left,1,20,1,0.464,16,24,559,1240,0,0,0,7,0
5af478d820299700016d0748,30,female,1,1,40,Ambigous_left,1,90,1,20,right,left,left,1,0,1,0.177,16,24,559,1240,0,0,0,7,0
5af478d820299700016d0748,30,female,1,1,41,Ambigous_left,1,90,1,20,right,left,right,0,-19,0,0.249,16,24,559,1240,1,1,0,7,0
5af478d820299700016d0748,30,female,1,1,44,Ambigous_left,1,90,1,20,right,left,right,0,-19,0,0.184,16,24,559,1240,1,1,0,7,0
5af478d820299700016d0748,30,female,1,1,45,Ambigous_left,1,90,1,20,right,left,left,1,0,1,0.498,16,24,559,1240,0,0,0,7,0
5af478d820299700016d0748,30,female,1,1,47,Ambigous_left,1,90,1,20,right,left,left,1,0,1,0.313,16,24,559,1240,0,0,0,7,0
5af478d820299700016d0748,30,female,1,1,59,Ambigous_left,1,90,1,20,right,left,left,1,0,1,0.287,16,24,559,1240,0,0,0,7,0
5af478d820299700016d0748,30,female,1,1,61,Ambigous_left,1,90,1,20,right,left,left,1,0,1,0.233,16,24,559,1240,0,0,0,7,0
5af478d820299700016d0748,30,female,1,1,63,Ambigous_left,1,90,1,20,right,left,right,0,-19,0,0.241,16,24,559,1240,1,1,0,7,0
5af478d820299700016d0748,30,female,1,1,66,Ambigous_left,1,90,1,20,right,left,left,1,0,1,0.412,16,24,559,1240,0,0,0,7,0
5af478d820299700016d0748,30,female,1,1,71,Ambigous_left,1,90,1,20,right,left,left,1,0,1,0.345,16,24,559,1240,0,0,0,7,0
5af478d820299700016d0748,30,female,1,1,72,Ambigous_left,1,90,1,20,right,left,left,1,0,1,0.187,16,24,559,1240,0,0,0,7,0
5af478d820299700016d0748,30,female,1,1,74,Ambigous_left,1,90,1,20,right,left,left,1,0,1,0.234,16,24,559,1240,0,0,0,7,0
5af478d820299700016d0748,30,female,1,1,76,Ambigous_left,1,90,1,20,right,left,left,1,0,1,0.269,16,24,559,1240,0,0,0,7,0
5af478d820299700016d0748,30,female,1,1,78,Ambigous_left,1,90,1,20,right,left,left,1,0,1,0.293,16,24,559,1240,0,0,0,7,0
5af478d820299700016d0748,30,female,1,1,90,Ambigous_left,1,90,1,20,right,left,right,0,-19,0,0.17,16,24,559,1240,1,1,0,7,0
5af478d820299700016d0748,30,female,1,1,98,Ambigous_left,1,90,1,20,right,left,left,1,0,1,0.246,16,24,559,1240,0,0,0,7,0
5af478d820299700016d0748,30,female,1,2,2,Ambigous_left,1,90,1,20,right,left,left,1,0,1,0.241,8,24,681,1240,0,0,0,0,3
5af478d820299700016d0748,30,female,1,2,12,Ambigous_left,1,90,1,20,right,left,left,1,0,1,0.248,8,24,681,1240,0,0,0,0,3
5af478d820299700016d0748,30,female,1,2,25,Ambigous_left,1,90,1,20,right,left,right,0,-19,0,0.254,8,24,681,1240,1,0,1,0,3
5af478d820299700016d0748,30,female,1,2,31,Ambigous_left,1,90,0,0,right,left,left,1,20,1,0.399,8,24,681,1240,0,0,0,0,3
5af478d820299700016d0748,30,female,1,2,36,Ambigous_left,1,90,1,20,right,left,left,1,0,1,0.221,8,24,681,1240,0,0,0,0,3
5af478d820299700016d0748,30,female,1,2,42,Ambigous_left,1,90,1,20,right,left,left,1,0,1,0.368,8,24,681,1240,0,0,0,0,3
5af478d820299700016d0748,30,female,1,2,43,Ambigous_left,1,90,1,20,right,left,left,1,0,1,0.236,8,24,681,1240,0,0,0,0,3
5af478d820299700016d0748,30,female,1,2,47,Ambigous_left,1,90,1,20,right,left,left,1,0,1,0.328,8,24,681,1240,0,0,0,0,3
5af478d820299700016d0748,30,female,1,2,52,Ambigous_left,1,90,1,20,right,left,left,1,0,1,0.366,8,24,681,1240,0,0,0,0,3
5af478d820299700016d0748,30,female,1,2,63,Ambigous_left,1,90,1,20,right,left,left,1,0,1,0.231,8,24,681,1240,0,0,0,0,3
5af478d820299700016d0748,30,female,1,2,69,Ambigous_left,1,90,1,20,right,left,left,1,0,1,0.231,8,24,681,1240,0,0,0,0,3
5af478d820299700016d0748,30,female,1,2,70,Ambigous_left,1,90,1,20,right,left,left,1,0,1,0.379,8,24,681,1240,0,0,0,0,3
5af478d820299700016d0748,30,female,1,2,71,Ambigous_left,1,90,1,20,right,left,left,1,0,1,0.271,8,24,681,1240,0,0,0,0,3
5af478d820299700016d0748,30,female,1,2,74,Ambigous_left,1,90,1,20,right,left,left,1,0,1,0.539,8,24,681,1240,0,0,0,0,3
5af478d820299700016d0748,30,female,1,2,75,Ambigous_left,1,90,1,20,right,left,left,1,0,1,0.29100000000000004,8,24,681,1240,0,0,0,0,3
5af478d820299700016d0748,30,female,1,2,76,Ambigous_left,1,90,1,20,right,left,left,1,0,1,0.319,8,24,681,1240,0,0,0,0,3
5af478d820299700016d0748,30,female,1,2,77,Ambigous_left,1,90,1,20,right,left,left,1,0,1,0.215,8,24,681,1240,0,0,0,0,3
5af478d820299700016d0748,30,female,1,2,80,Ambigous_left,1,90,1,20,right,left,right,0,-19,0,0.241,8,24,681,1240,1,0,1,0,3
5af478d820299700016d0748,30,female,1,2,85,Ambigous_left,1,90,1,20,right,left,left,1,0,1,0.249,8,24,681,1240,0,0,0,0,3
5af478d820299700016d0748,30,female,1,2,86,Ambigous_left,1,90,0,0,right,left,left,1,20,1,0.226,8,24,681,1240,0,0,0,0,3
5af478d820299700016d0748,30,female,1,2,87,Ambigous_left,1,90,1,20,right,left,right,0,-19,0,0.33,8,24,681,1240,1,0,1,0,3
5af478d820299700016d0748,30,female,1,2,88,Ambigous_left,1,90,1,20,right,left,left,1,0,1,0.232,8,24,681,1240,0,0,0,0,3
5af478d820299700016d0748,30,female,1,2,92,Ambigous_left,1,90,1,20,right,left,left,1,0,1,0.259,8,24,681,1240,0,0,0,0,3
5af478d820299700016d0748,30,female,1,2,96,Ambigous_left,1,90,1,20,right,left,left,1,0,1,0.25,8,24,681,1240,0,0,0,0,3
5af478d820299700016d0748,30,female,1,2,97,Ambigous_left,1,90,1,20,right,left,left,1,0,1,0.366,8,24,681,1240,0,0,0,0,3
5b7de8361e7bc100011dc574,56,female,1,1,5,Ambigous_left,3,0,0,0,right,left,left,1,2,1,0.061,6,15,139,283,0,0,0,2,0
5b7de8361e7bc100011dc574,56,female,1,1,6,Ambigous_left,3,0,0,0,right,left,left,1,2,1,0.064,6,15,139,283,0,0,0,2,0
5b7de8361e7bc100011dc574,56,female,1,1,8,Ambigous_left,3,0,0,0,right,left,left,1,2,1,0.058,6,15,139,283,0,0,0,2,0
5b7de8361e7bc100011dc574,56,female,1,1,9,Ambigous_left,3,0,0,0,right,left,left,1,2,1,0.068,6,15,139,283,0,0,0,2,0
5b7de8361e7bc100011dc574,56,female,1,1,11,Ambigous_left,3,0,0,0,right,left,left,1,2,1,0.052000000000000005,6,15,139,283,0,0,0,2,0
5b7de8361e7bc100011dc574,56,female,1,1,17,Ambigous_left,3,0,0,0,right,left,left,1,2,1,0.062,6,15,139,283,0,0,0,2,0
5b7de8361e7bc100011dc574,56,female,1,1,19,Ambigous_left,3,0,0,0,right,left,left,1,2,1,0.055,6,15,139,283,0,0,0,2,0
5b7de8361e7bc100011dc574,56,female,1,1,22,Ambigous_left,3,0,0,0,right,left,left,1,2,1,0.064,6,15,139,283,0,0,0,2,0
5b7de8361e7bc100011dc574,56,female,1,1,30,Ambigous_left,3,0,0,0,right,left,left,1,2,1,0.057,6,15,139,283,0,0,0,2,0
5b7de8361e7bc100011dc574,56,female,1,1,36,Ambigous_left,3,0,0,0,right,left,left,1,2,1,0.047,6,15,139,283,0,0,0,2,0
5b7de8361e7bc100011dc574,56,female,1,1,45,Ambigous_left,3,0,0,0,right,left,left,1,2,1,0.071,6,15,139,283,0,0,0,2,0
5b7de8361e7bc100011dc574,56,female,1,1,48,Ambigous_left,3,0,0,0,right,left,left,1,2,1,0.067,6,15,139,283,0,0,0,2,0
5b7de8361e7bc100011dc574,56,female,1,1,49,Ambigous_left,3,0,0,0,right,left,left,1,2,1,0.058,6,15,139,283,0,0,0,2,0
5b7de8361e7bc100011dc574,56,female,1,1,54,Ambigous_left,3,0,0,0,right,left,left,1,2,1,0.06,6,15,139,283,0,0,0,2,0
5b7de8361e7bc100011dc574,56,female,1,1,56,Ambigous_left,3,0,0,0,right,left,left,1,2,1,0.058,6,15,139,283,0,0,0,2,0
5b7de8361e7bc100011dc574,56,female,1,1,61,Ambigous_left,3,0,0,0,right,left,left,1,2,1,0.067,6,15,139,283,0,0,0,2,0
5b7de8361e7bc100011dc574,56,female,1,1,74,Ambigous_left,3,0,0,0,right,left,right,2,1,0,0.064,6,15,139,283,1,1,0,2,0
5b7de8361e7bc100011dc574,56,female,1,1,77,Ambigous_left,3,0,0,0,right,left,left,1,2,1,0.055,6,15,139,283,0,0,0,2,0
5b7de8361e7bc100011dc574,56,female,1,1,86,Ambigous_left,3,0,0,0,right,left,left,1,2,1,0.052000000000000005,6,15,139,283,0,0,0,2,0
5b7de8361e7bc100011dc574,56,female,1,1,87,Ambigous_left,3,0,0,0,right,left,left,1,2,1,0.041,6,15,139,283,0,0,0,2,0
5b7de8361e7bc100011dc574,56,female,1,1,88,Ambigous_left,3,0,0,0,right,left,left,1,2,1,0.048,6,15,139,283,0,0,0,2,0
5b7de8361e7bc100011dc574,56,female,1,1,90,Ambigous_left,3,0,0,0,right,left,right,2,1,0,0.027000000000000003,6,15,139,283,1,1,0,2,0
5b7de8361e7bc100011dc574,56,female,1,1,93,Ambigous_left,3,0,0,0,right,left,left,1,2,1,0.064,6,15,139,283,0,0,0,2,0
5b7de8361e7bc100011dc574,56,female,1,1,94,Ambigous_left,3,0,0,0,right,left,left,1,2,1,0.068,6,15,139,283,0,0,0,2,0
5b7de8361e7bc100011dc574,56,female,1,1,95,Ambigous_left,3,0,0,0,right,left,left,1,2,1,0.056,6,15,139,283,0,0,0,2,0
5b7de8361e7bc100011dc574,56,female,1,2,1,Ambigous_left,3,0,0,0,right,left,left,1,2,1,0.06,9,15,144,283,0,0,0,0,6
5b7de8361e7bc100011dc574,56,female,1,2,6,Ambigous_left,3,0,0,0,right,left,left,1,2,1,0.14300000000000002,9,15,144,283,0,0,0,0,6
5b7de8361e7bc100011dc574,56,female,1,2,8,Ambigous_left,3,0,0,0,right,left,left,1,2,1,0.06,9,15,144,283,0,0,0,0,6
5b7de8361e7bc100011dc574,56,female,1,2,17,Ambigous_left,3,0,0,0,right,left,left,1,2,1,0.049,9,15,144,283,0,0,0,0,6
5b7de8361e7bc100011dc574,56,female,1,2,22,Ambigous_left,3,0,0,0,right,left,left,1,2,1,0.05,9,15,144,283,0,0,0,0,6
5b7de8361e7bc100011dc574,56,female,1,2,23,Ambigous_left,3,0,0,0,right,left,left,1,2,1,0.05,9,15,144,283,0,0,0,0,6
5b7de8361e7bc100011dc574,56,female,1,2,31,Ambigous_left,3,0,0,0,right,left,right,2,1,0,0.07400000000000001,9,15,144,283,1,0,1,0,6
5b7de8361e7bc100011dc574,56,female,1,2,36,Ambigous_left,3,0,0,0,right,left,left,1,2,1,0.051,9,15,144,283,0,0,0,0,6
5b7de8361e7bc100011dc574,56,female,1,2,37,Ambigous_left,3,0,0,0,right,left,right,2,1,0,0.07400000000000001,9,15,144,283,1,0,1,0,6
5b7de8361e7bc100011dc574,56,female,1,2,49,Ambigous_left,3,0,0,0,right,left,left,1,2,1,0.048,9,15,144,283,0,0,0,0,6
5b7de8361e7bc100011dc574,56,female,1,2,50,Ambigous_left,3,0,0,0,right,left,left,1,2,1,0.056,9,15,144,283,0,0,0,0,6
5b7de8361e7bc100011dc574,56,female,1,2,51,Ambigous_left,3,0,0,0,right,left,left,1,2,1,0.07200000000000001,9,15,144,283,0,0,0,0,6
5b7de8361e7bc100011dc574,56,female,1,2,53,Ambigous_left,3,0,0,0,right,left,right,2,1,0,0.145,9,15,144,283,1,0,1,0,6
5b7de8361e7bc100011dc574,56,female,1,2,55,Ambigous_left,3,0,0,0,right,left,left,1,2,1,0.056,9,15,144,283,0,0,0,0,6
5b7de8361e7bc100011dc574,56,female,1,2,56,Ambigous_left,3,0,0,0,right,left,left,1,2,1,0.052000000000000005,9,15,144,283,0,0,0,0,6
5b7de8361e7bc100011dc574,56,female,1,2,57,Ambigous_left,3,0,0,0,right,left,right,2,1,0,0.073,9,15,144,283,1,0,1,0,6
5b7de8361e7bc100011dc574,56,female,1,2,62,Ambigous_left,3,0,0,0,right,left,left,1,2,1,0.058,9,15,144,283,0,0,0,0,6
5b7de8361e7bc100011dc574,56,female,1,2,66,Ambigous_left,3,0,0,0,right,left,right,2,1,0,0.063,9,15,144,283,1,0,1,0,6
5b7de8361e7bc100011dc574,56,female,1,2,70,Ambigous_left,3,0,0,0,right,left,right,2,1,0,0.057,9,15,144,283,1,0,1,0,6
5b7de8361e7bc100011dc574,56,female,1,2,75,Ambigous_left,3,0,0,0,right,left,left,1,2,1,0.049,9,15,144,283,0,0,0,0,6
5b7de8361e7bc100011dc574,56,female,1,2,81,Ambigous_left,3,0,0,0,right,left,left,1,2,1,0.058,9,15,144,283,0,0,0,0,6
5b7de8361e7bc100011dc574,56,female,1,2,82,Ambigous_left,3,0,0,0,right,left,left,1,2,1,0.052000000000000005,9,15,144,283,0,0,0,0,6
5b7de8361e7bc100011dc574,56,female,1,2,83,Ambigous_left,3,0,0,0,right,left,left,1,2,1,0.049,9,15,144,283,0,0,0,0,6
5b7de8361e7bc100011dc574,56,female,1,2,98,Ambigous_left,3,0,0,0,right,left,left,1,2,1,0.059,9,15,144,283,0,0,0,0,6
5b7de8361e7bc100011dc574,56,female,1,2,99,Ambigous_left,3,0,0,0,right,left,left,1,2,1,0.044,9,15,144,283,0,0,0,0,6
5d94aee42efd5f0017023e9e,18,female,1,1,4,Ambigous_right,3,0,0,0,left,right,right,1,2,1,0.184,7,12,138,278,0,0,0,2,0
5d94aee42efd5f0017023e9e,18,female,1,1,6,Ambigous_right,3,0,0,0,left,right,right,1,2,1,0.258,7,12,138,278,0,0,0,2,0
5d94aee42efd5f0017023e9e,18,female,1,1,10,Ambigous_right,3,0,0,0,left,right,left,2,1,0,0.284,7,12,138,278,1,1,0,2,0
5d94aee42efd5f0017023e9e,18,female,1,1,11,Ambigous_right,3,0,0,0,left,right,right,1,2,1,0.248,7,12,138,278,0,0,0,2,0
5d94aee42efd5f0017023e9e,18,female,1,1,17,Ambigous_right,3,0,0,0,left,right,right,1,2,1,0.235,7,12,138,278,0,0,0,2,0
5d94aee42efd5f0017023e9e,18,female,1,1,20,Ambigous_right,3,0,0,0,left,right,right,1,2,1,0.172,7,12,138,278,0,0,0,2,0
5d94aee42efd5f0017023e9e,18,female,1,1,23,Ambigous_right,3,0,0,0,left,right,right,1,2,1,0.35100000000000003,7,12,138,278,0,0,0,2,0
5d94aee42efd5f0017023e9e,18,female,1,1,28,Ambigous_right,3,0,0,0,left,right,right,1,2,1,0.156,7,12,138,278,0,0,0,2,0
5d94aee42efd5f0017023e9e,18,female,1,1,29,Ambigous_right,3,0,0,0,left,right,right,1,2,1,0.381,7,12,138,278,0,0,0,2,0
5d94aee42efd5f0017023e9e,18,female,1,1,31,Ambigous_right,3,0,0,0,left,right,right,1,2,1,0.171,7,12,138,278,0,0,0,2,0
5d94aee42efd5f0017023e9e,18,female,1,1,40,Ambigous_right,3,0,0,0,left,right,right,1,2,1,0.179,7,12,138,278,0,0,0,2,0
5d94aee42efd5f0017023e9e,18,female,1,1,47,Ambigous_right,3,0,0,0,left,right,right,1,2,1,0.14,7,12,138,278,0,0,0,2,0
5d94aee42efd5f0017023e9e,18,female,1,1,54,Ambigous_right,3,0,0,0,left,right,right,1,2,1,0.287,7,12,138,278,0,0,0,2,0
5d94aee42efd5f0017023e9e,18,female,1,1,56,Ambigous_right,3,0,0,0,left,right,right,1,2,1,0.171,7,12,138,278,0,0,0,2,0
5d94aee42efd5f0017023e9e,18,female,1,1,61,Ambigous_right,3,0,0,0,left,right,right,1,2,1,0.177,7,12,138,278,0,0,0,2,0
5d94aee42efd5f0017023e9e,18,female,1,1,70,Ambigous_right,3,0,0,0,left,right,right,1,2,1,0.146,7,12,138,278,0,0,0,2,0
5d94aee42efd5f0017023e9e,18,female,1,1,73,Ambigous_right,3,0,0,0,left,right,right,1,2,1,0.379,7,12,138,278,0,0,0,2,0
5d94aee42efd5f0017023e9e,18,female,1,1,74,Ambigous_right,3,0,0,0,left,right,right,1,2,1,0.168,7,12,138,278,0,0,0,2,0
5d94aee42efd5f0017023e9e,18,female,1,1,77,Ambigous_right,3,0,0,0,left,right,right,1,2,1,0.153,7,12,138,278,0,0,0,2,0
5d94aee42efd5f0017023e9e,18,female,1,1,82,Ambigous_right,3,0,0,0,left,right,right,1,2,1,0.158,7,12,138,278,0,0,0,2,0
5d94aee42efd5f0017023e9e,18,female,1,1,84,Ambigous_right,3,0,0,0,left,right,right,1,2,1,0.217,7,12,138,278,0,0,0,2,0
5d94aee42efd5f0017023e9e,18,female,1,1,86,Ambigous_right,3,0,0,0,left,right,right,1,2,1,0.195,7,12,138,278,0,0,0,2,0
5d94aee42efd5f0017023e9e,18,female,1,1,94,Ambigous_right,3,0,0,0,left,right,right,1,2,1,0.166,7,12,138,278,0,0,0,2,0
5d94aee42efd5f0017023e9e,18,female,1,1,98,Ambigous_right,3,0,0,0,left,right,right,1,2,1,0.157,7,12,138,278,0,0,0,2,0
5d94aee42efd5f0017023e9e,18,female,1,1,100,Ambigous_right,3,0,0,0,left,right,left,2,1,0,0.748,7,12,138,278,1,1,0,2,0
5d94aee42efd5f0017023e9e,18,female,1,2,6,Ambigous_right,3,0,0,0,left,right,right,1,2,1,0.17,5,12,140,278,0,0,0,0,2
5d94aee42efd5f0017023e9e,18,female,1,2,7,Ambigous_right,3,0,0,0,left,right,right,1,2,1,0.251,5,12,140,278,0,0,0,0,2
5d94aee42efd5f0017023e9e,18,female,1,2,10,Ambigous_right,3,0,0,0,left,right,right,1,2,1,0.224,5,12,140,278,0,0,0,0,2
5d94aee42efd5f0017023e9e,18,female,1,2,14,Ambigous_right,3,0,0,0,left,right,right,1,2,1,0.47,5,12,140,278,0,0,0,0,2
5d94aee42efd5f0017023e9e,18,female,1,2,17,Ambigous_right,3,0,0,0,left,right,right,1,2,1,0.294,5,12,140,278,0,0,0,0,2
5d94aee42efd5f0017023e9e,18,female,1,2,19,Ambigous_right,3,0,0,0,left,right,left,2,1,0,0.181,5,12,140,278,1,0,1,0,2
5d94aee42efd5f0017023e9e,18,female,1,2,24,Ambigous_right,3,0,0,0,left,right,right,1,2,1,0.25,5,12,140,278,0,0,0,0,2
5d94aee42efd5f0017023e9e,18,female,1,2,26,Ambigous_right,3,0,0,0,left,right,right,1,2,1,0.208,5,12,140,278,0,0,0,0,2
5d94aee42efd5f0017023e9e,18,female,1,2,27,Ambigous_right,3,0,0,0,left,right,left,2,1,0,0.201,5,12,140,278,1,0,1,0,2
5d94aee42efd5f0017023e9e,18,female,1,2,29,Ambigous_right,3,0,0,0,left,right,right,1,2,1,0.246,5,12,140,278,0,0,0,0,2
5d94aee42efd5f0017023e9e,18,female,1,2,33,Ambigous_right,3,0,0,0,left,right,right,1,2,1,0.183,5,12,140,278,0,0,0,0,2
5d94aee42efd5f0017023e9e,18,female,1,2,35,Ambigous_right,3,0,0,0,left,right,right,1,2,1,0.211,5,12,140,278,0,0,0,0,2
5d94aee42efd5f0017023e9e,18,female,1,2,40,Ambigous_right,3,0,0,0,left,right,right,1,2,1,0.228,5,12,140,278,0,0,0,0,2
5d94aee42efd5f0017023e9e,18,female,1,2,49,Ambigous_right,3,0,0,0,left,right,right,1,2,1,0.185,5,12,140,278,0,0,0,0,2
5d94aee42efd5f0017023e9e,18,female,1,2,54,Ambigous_right,3,0,0,0,left,right,right,1,2,1,0.18600000000000005,5,12,140,278,0,0,0,0,2
5d94aee42efd5f0017023e9e,18,female,1,2,61,Ambigous_right,3,0,0,0,left,right,right,1,2,1,0.153,5,12,140,278,0,0,0,0,2
5d94aee42efd5f0017023e9e,18,female,1,2,67,Ambigous_right,3,0,0,0,left,right,right,1,2,1,0.149,5,12,140,278,0,0,0,0,2
5d94aee42efd5f0017023e9e,18,female,1,2,76,Ambigous_right,3,0,0,0,left,right,right,1,2,1,0.194,5,12,140,278,0,0,0,0,2
5d94aee42efd5f0017023e9e,18,female,1,2,80,Ambigous_right,3,0,0,0,left,right,right,1,2,1,0.165,5,12,140,278,0,0,0,0,2
5d94aee42efd5f0017023e9e,18,female,1,2,82,Ambigous_right,3,0,0,0,left,right,right,1,2,1,0.149,5,12,140,278,0,0,0,0,2
5d94aee42efd5f0017023e9e,18,female,1,2,84,Ambigous_right,3,0,0,0,left,right,right,1,2,1,0.192,5,12,140,278,0,0,0,0,2
5d94aee42efd5f0017023e9e,18,female,1,2,87,Ambigous_right,3,0,0,0,left,right,right,1,2,1,0.257,5,12,140,278,0,0,0,0,2
5d94aee42efd5f0017023e9e,18,female,1,2,93,Ambigous_right,3,0,0,0,left,right,right,1,2,1,0.271,5,12,140,278,0,0,0,0,2
5d94aee42efd5f0017023e9e,18,female,1,2,97,Ambigous_right,3,0,0,0,left,right,right,1,2,1,0.152,5,12,140,278,0,0,0,0,2
5d94aee42efd5f0017023e9e,18,female,1,2,99,Ambigous_right,3,0,0,0,left,right,right,1,2,1,0.154,5,12,140,278,0,0,0,0,2
5df2476e398bb6146cb2c8e1,29,male,1,1,2,Ambigous_right,2,10,0,0,left,right,right,1,20,1,0.245,13,20,510,1190,0,0,0,9,0
5df2476e398bb6146cb2c8e1,29,male,1,1,5,Ambigous_right,2,10,0,0,left,right,left,20,1,0,0.165,13,20,510,1190,1,1,0,9,0
5df2476e398bb6146cb2c8e1,29,male,1,1,7,Ambigous_right,2,10,0,0,left,right,right,1,20,1,0.17600000000000002,13,20,510,1190,0,0,0,9,0
5df2476e398bb6146cb2c8e1,29,male,1,1,13,Ambigous_right,2,10,0,0,left,right,left,20,1,0,0.307,13,20,510,1190,1,1,0,9,0
5df2476e398bb6146cb2c8e1,29,male,1,1,17,Ambigous_right,2,10,0,0,left,right,right,1,20,1,0.24,13,20,510,1190,0,0,0,9,0
5df2476e398bb6146cb2c8e1,29,male,1,1,21,Ambigous_right,2,10,0,0,left,right,left,20,1,0,0.201,13,20,510,1190,1,1,0,9,0
5df2476e398bb6146cb2c8e1,29,male,1,1,22,Ambigous_right,2,10,0,0,left,right,left,20,1,0,0.188,13,20,510,1190,1,1,0,9,0
5df2476e398bb6146cb2c8e1,29,male,1,1,35,Ambigous_right,2,10,0,0,left,right,right,1,20,1,0.208,13,20,510,1190,0,0,0,9,0
5df2476e398bb6146cb2c8e1,29,male,1,1,37,Ambigous_right,2,10,0,0,left,right,left,20,1,0,0.408,13,20,510,1190,1,1,0,9,0
5df2476e398bb6146cb2c8e1,29,male,1,1,40,Ambigous_right,2,10,1,180,left,right,left,-160,-179,0,0.308,13,20,510,1190,1,1,0,9,0
5df2476e398bb6146cb2c8e1,29,male,1,1,50,Ambigous_right,2,10,0,0,left,right,right,1,20,1,0.125,13,20,510,1190,0,0,0,9,0
5df2476e398bb6146cb2c8e1,29,male,1,1,55,Ambigous_right,2,10,0,0,left,right,right,1,20,1,0.16,13,20,510,1190,0,0,0,9,0
5df2476e398bb6146cb2c8e1,29,male,1,1,63,Ambigous_right,2,10,0,0,left,right,right,1,20,1,0.128,13,20,510,1190,0,0,0,9,0
5df2476e398bb6146cb2c8e1,29,male,1,1,64,Ambigous_right,2,10,0,0,left,right,right,1,20,1,0.194,13,20,510,1190,0,0,0,9,0
5df2476e398bb6146cb2c8e1,29,male,1,1,67,Ambigous_right,2,10,0,0,left,right,left,20,1,0,0.168,13,20,510,1190,1,1,0,9,0
5df2476e398bb6146cb2c8e1,29,male,1,1,72,Ambigous_right,2,10,0,0,left,right,right,1,20,1,0.245,13,20,510,1190,0,0,0,9,0
5df2476e398bb6146cb2c8e1,29,male,1,1,80,Ambigous_right,2,10,0,0,left,right,right,1,20,1,0.092,13,20,510,1190,0,0,0,9,0
5df2476e398bb6146cb2c8e1,29,male,1,1,82,Ambigous_right,2,10,0,0,left,right,right,1,20,1,0.213,13,20,510,1190,0,0,0,9,0
5df2476e398bb6146cb2c8e1,29,male,1,1,85,Ambigous_right,2,10,1,180,left,right,right,1,-160,1,0.097,13,20,510,1190,0,0,0,9,0
5df2476e398bb6146cb2c8e1,29,male,1,1,90,Ambigous_right,2,10,0,0,left,right,right,1,20,1,0.08900000000000001,13,20,510,1190,0,0,0,9,0
5df2476e398bb6146cb2c8e1,29,male,1,1,91,Ambigous_right,2,10,0,0,left,right,right,1,20,1,0.18,13,20,510,1190,0,0,0,9,0
5df2476e398bb6146cb2c8e1,29,male,1,1,94,Ambigous_right,2,10,0,0,left,right,left,20,1,0,0.118,13,20,510,1190,1,1,0,9,0
5df2476e398bb6146cb2c8e1,29,male,1,1,95,Ambigous_right,2,10,0,0,left,right,left,20,1,0,0.285,13,20,510,1190,1,1,0,9,0
5df2476e398bb6146cb2c8e1,29,male,1,1,96,Ambigous_right,2,10,0,0,left,right,right,1,20,1,0.1,13,20,510,1190,0,0,0,9,0
5df2476e398bb6146cb2c8e1,29,male,1,1,97,Ambigous_right,2,10,0,0,left,right,right,1,20,1,0.14400000000000002,13,20,510,1190,0,0,0,9,0
5df2476e398bb6146cb2c8e1,29,male,1,2,1,Ambigous_right,2,10,1,180,left,right,left,-160,-179,0,0.18600000000000005,7,20,680,1190,1,0,1,0,3
5df2476e398bb6146cb2c8e1,29,male,1,2,3,Ambigous_right,2,10,0,0,left,right,right,1,20,1,0.091,7,20,680,1190,0,0,0,0,3
5df2476e398bb6146cb2c8e1,29,male,1,2,7,Ambigous_right,2,10,0,0,left,right,right,1,20,1,0.14800000000000002,7,20,680,1190,0,0,0,0,3
5df2476e398bb6146cb2c8e1,29,male,1,2,8,Ambigous_right,2,10,1,180,left,right,right,1,-160,1,0.14800000000000002,7,20,680,1190,0,0,0,0,3
5df2476e398bb6146cb2c8e1,29,male,1,2,9,Ambigous_right,2,10,0,0,left,right,left,20,1,0,0.111,7,20,680,1190,1,0,1,0,3
5df2476e398bb6146cb2c8e1,29,male,1,2,12,Ambigous_right,2,10,0,0,left,right,right,1,20,1,0.156,7,20,680,1190,0,0,0,0,3
5df2476e398bb6146cb2c8e1,29,male,1,2,15,Ambigous_right,2,10,0,0,left,right,right,1,20,1,0.114,7,20,680,1190,0,0,0,0,3
5df2476e398bb6146cb2c8e1,29,male,1,2,23,Ambigous_right,2,10,1,180,left,right,right,1,-160,1,0.153,7,20,680,1190,0,0,0,0,3
5df2476e398bb6146cb2c8e1,29,male,1,2,26,Ambigous_right,2,10,0,0,left,right,right,1,20,1,0.59,7,20,680,1190,0,0,0,0,3
5df2476e398bb6146cb2c8e1,29,male,1,2,29,Ambigous_right,2,10,0,0,left,right,right,1,20,1,0.102,7,20,680,1190,0,0,0,0,3
5df2476e398bb6146cb2c8e1,29,male,1,2,32,Ambigous_right,2,10,0,0,left,right,right,1,20,1,0.276,7,20,680,1190,0,0,0,0,3
5df2476e398bb6146cb2c8e1,29,male,1,2,36,Ambigous_right,2,10,0,0,left,right,right,1,20,1,0.172,7,20,680,1190,0,0,0,0,3
5df2476e398bb6146cb2c8e1,29,male,1,2,38,Ambigous_right,2,10,0,0,left,right,right,1,20,1,0.126,7,20,680,1190,0,0,0,0,3
5df2476e398bb6146cb2c8e1,29,male,1,2,44,Ambigous_right,2,10,0,0,left,right,right,1,20,1,0.14800000000000002,7,20,680,1190,0,0,0,0,3
5df2476e398bb6146cb2c8e1,29,male,1,2,47,Ambigous_right,2,10,0,0,left,right,left,20,1,0,0.32299999999999995,7,20,680,1190,1,0,1,0,3
5df2476e398bb6146cb2c8e1,29,male,1,2,50,Ambigous_right,2,10,0,0,left,right,right,1,20,1,0.151,7,20,680,1190,0,0,0,0,3
5df2476e398bb6146cb2c8e1,29,male,1,2,52,Ambigous_right,2,10,0,0,left,right,right,1,20,1,0.319,7,20,680,1190,0,0,0,0,3
5df2476e398bb6146cb2c8e1,29,male,1,2,58,Ambigous_right,2,10,0,0,left,right,right,1,20,1,0.071,7,20,680,1190,0,0,0,0,3
5df2476e398bb6146cb2c8e1,29,male,1,2,62,Ambigous_right,2,10,0,0,left,right,right,1,20,1,0.07400000000000001,7,20,680,1190,0,0,0,0,3
5df2476e398bb6146cb2c8e1,29,male,1,2,72,Ambigous_right,2,10,0,0,left,right,right,1,20,1,0.061,7,20,680,1190,0,0,0,0,3
5df2476e398bb6146cb2c8e1,29,male,1,2,73,Ambigous_right,2,10,0,0,left,right,right,1,20,1,0.075,7,20,680,1190,0,0,0,0,3
5df2476e398bb6146cb2c8e1,29,male,1,2,91,Ambigous_right,2,10,0,0,left,right,right,1,20,1,0.08,7,20,680,1190,0,0,0,0,3
5df2476e398bb6146cb2c8e1,29,male,1,2,92,Ambigous_right,2,10,0,0,left,right,right,1,20,1,0.094,7,20,680,1190,0,0,0,0,3
5df2476e398bb6146cb2c8e1,29,male,1,2,95,Ambigous_right,2,10,0,0,left,right,right,1,20,1,0.198,7,20,680,1190,0,0,0,0,3
5df2476e398bb6146cb2c8e1,29,male,1,2,100,Ambigous_right,2,10,0,0,left,right,right,1,20,1,0.133,7,20,680,1190,0,0,0,0,3
5e793c9d572cea50199853e7,23,male,1,1,2,Ambigous_left,2,10,0,0,right,left,left,1,20,1,0.055,7,12,614,1550,0,0,0,6,0
5e793c9d572cea50199853e7,23,male,1,1,6,Ambigous_left,2,10,0,0,right,left,left,1,20,1,0.042,7,12,614,1550,0,0,0,6,0
5e793c9d572cea50199853e7,23,male,1,1,8,Ambigous_left,2,10,1,180,right,left,left,1,-160,1,0.042,7,12,614,1550,0,0,0,6,0
5e793c9d572cea50199853e7,23,male,1,1,14,Ambigous_left,2,10,0,0,right,left,left,1,20,1,0.039,7,12,614,1550,0,0,0,6,0
5e793c9d572cea50199853e7,23,male,1,1,15,Ambigous_left,2,10,0,0,right,left,left,1,20,1,0.03,7,12,614,1550,0,0,0,6,0
5e793c9d572cea50199853e7,23,male,1,1,16,Ambigous_left,2,10,1,180,right,left,right,-160,-179,0,0.046,7,12,614,1550,1,1,0,6,0
5e793c9d572cea50199853e7,23,male,1,1,17,Ambigous_left,2,10,0,0,right,left,left,1,20,1,0.047,7,12,614,1550,0,0,0,6,0
5e793c9d572cea50199853e7,23,male,1,1,18,Ambigous_left,2,10,0,0,right,left,left,1,20,1,0.038,7,12,614,1550,0,0,0,6,0
5e793c9d572cea50199853e7,23,male,1,1,19,Ambigous_left,2,10,0,0,right,left,right,20,1,0,0.05,7,12,614,1550,1,1,0,6,0
5e793c9d572cea50199853e7,23,male,1,1,21,Ambigous_left,2,10,0,0,right,left,left,1,20,1,0.042,7,12,614,1550,0,0,0,6,0
5e793c9d572cea50199853e7,23,male,1,1,24,Ambigous_left,2,10,0,0,right,left,left,1,20,1,0.031,7,12,614,1550,0,0,0,6,0
5e793c9d572cea50199853e7,23,male,1,1,32,Ambigous_left,2,10,0,0,right,left,left,1,20,1,0.042,7,12,614,1550,0,0,0,6,0
5e793c9d572cea50199853e7,23,male,1,1,33,Ambigous_left,2,10,0,0,right,left,right,20,1,0,0.04,7,12,614,1550,1,1,0,6,0
5e793c9d572cea50199853e7,23,male,1,1,34,Ambigous_left,2,10,0,0,right,left,right,20,1,0,0.039,7,12,614,1550,1,1,0,6,0
5e793c9d572cea50199853e7,23,male,1,1,51,Ambigous_left,2,10,0,0,right,left,left,1,20,1,0.041,7,12,614,1550,0,0,0,6,0
5e793c9d572cea50199853e7,23,male,1,1,63,Ambigous_left,2,10,1,180,right,left,right,-160,-179,0,0.036000000000000004,7,12,614,1550,1,1,0,6,0
5e793c9d572cea50199853e7,23,male,1,1,67,Ambigous_left,2,10,0,0,right,left,left,1,20,1,0.03,7,12,614,1550,0,0,0,6,0
5e793c9d572cea50199853e7,23,male,1,1,68,Ambigous_left,2,10,0,0,right,left,left,1,20,1,0.026,7,12,614,1550,0,0,0,6,0
5e793c9d572cea50199853e7,23,male,1,1,70,Ambigous_left,2,10,0,0,right,left,left,1,20,1,0.05,7,12,614,1550,0,0,0,6,0
5e793c9d572cea50199853e7,23,male,1,1,71,Ambigous_left,2,10,0,0,right,left,left,1,20,1,0.043,7,12,614,1550,0,0,0,6,0
5e793c9d572cea50199853e7,23,male,1,1,80,Ambigous_left,2,10,0,0,right,left,right,20,1,0,0.028,7,12,614,1550,1,1,0,6,0
5e793c9d572cea50199853e7,23,male,1,1,85,Ambigous_left,2,10,0,0,right,left,left,1,20,1,0.061,7,12,614,1550,0,0,0,6,0
5e793c9d572cea50199853e7,23,male,1,1,87,Ambigous_left,2,10,0,0,right,left,left,1,20,1,0.042,7,12,614,1550,0,0,0,6,0
5e793c9d572cea50199853e7,23,male,1,1,93,Ambigous_left,2,10,0,0,right,left,left,1,20,1,0.025,7,12,614,1550,0,0,0,6,0
5e793c9d572cea50199853e7,23,male,1,1,100,Ambigous_left,2,10,0,0,right,left,left,1,20,1,0.034,7,12,614,1550,0,0,0,6,0
5e793c9d572cea50199853e7,23,male,1,2,1,Ambigous_left,2,10,0,0,right,left,right,20,1,0,0.037000000000000005,5,12,936,1550,1,0,1,0,4
5e793c9d572cea50199853e7,23,male,1,2,2,Ambigous_left,2,10,0,0,right,left,left,1,20,1,0.045,5,12,936,1550,0,0,0,0,4
5e793c9d572cea50199853e7,23,male,1,2,11,Ambigous_left,2,10,0,0,right,left,right,20,1,0,0.036000000000000004,5,12,936,1550,1,0,1,0,4
5e793c9d572cea50199853e7,23,male,1,2,13,Ambigous_left,2,10,0,0,right,left,left,1,20,1,0.035,5,12,936,1550,0,0,0,0,4
5e793c9d572cea50199853e7,23,male,1,2,14,Ambigous_left,2,10,0,0,right,left,left,1,20,1,0.034,5,12,936,1550,0,0,0,0,4
5e793c9d572cea50199853e7,23,male,1,2,15,Ambigous_left,2,10,0,0,right,left,left,1,20,1,0.035,5,12,936,1550,0,0,0,0,4
5e793c9d572cea50199853e7,23,male,1,2,22,Ambigous_left,2,10,0,0,right,left,left,1,20,1,0.027000000000000003,5,12,936,1550,0,0,0,0,4
5e793c9d572cea50199853e7,23,male,1,2,27,Ambigous_left,2,10,1,180,right,left,left,1,-160,1,0.02,5,12,936,1550,0,0,0,0,4
5e793c9d572cea50199853e7,23,male,1,2,28,Ambigous_left,2,10,0,0,right,left,left,1,20,1,0.023,5,12,936,1550,0,0,0,0,4
5e793c9d572cea50199853e7,23,male,1,2,45,Ambigous_left,2,10,0,0,right,left,right,20,1,0,0.032,5,12,936,1550,1,0,1,0,4
5e793c9d572cea50199853e7,23,male,1,2,46,Ambigous_left,2,10,0,0,right,left,left,1,20,1,0.053,5,12,936,1550,0,0,0,0,4
5e793c9d572cea50199853e7,23,male,1,2,49,Ambigous_left,2,10,0,0,right,left,left,1,20,1,0.026,5,12,936,1550,0,0,0,0,4
5e793c9d572cea50199853e7,23,male,1,2,54,Ambigous_left,2,10,1,180,right,left,left,1,-160,1,0.037000000000000005,5,12,936,1550,0,0,0,0,4
5e793c9d572cea50199853e7,23,male,1,2,55,Ambigous_left,2,10,0,0,right,left,left,1,20,1,0.027000000000000003,5,12,936,1550,0,0,0,0,4
5e793c9d572cea50199853e7,23,male,1,2,59,Ambigous_left,2,10,1,180,right,left,left,1,-160,1,0.022,5,12,936,1550,0,0,0,0,4
5e793c9d572cea50199853e7,23,male,1,2,65,Ambigous_left,2,10,0,0,right,left,left,1,20,1,0.024,5,12,936,1550,0,0,0,0,4
5e793c9d572cea50199853e7,23,male,1,2,68,Ambigous_left,2,10,0,0,right,left,left,1,20,1,0.023,5,12,936,1550,0,0,0,0,4
5e793c9d572cea50199853e7,23,male,1,2,69,Ambigous_left,2,10,0,0,right,left,left,1,20,1,0.031,5,12,936,1550,0,0,0,0,4
5e793c9d572cea50199853e7,23,male,1,2,71,Ambigous_left,2,10,1,180,right,left,left,1,-160,1,0.033,5,12,936,1550,0,0,0,0,4
5e793c9d572cea50199853e7,23,male,1,2,72,Ambigous_left,2,10,0,0,right,left,left,1,20,1,0.022,5,12,936,1550,0,0,0,0,4
5e793c9d572cea50199853e7,23,male,1,2,76,Ambigous_left,2,10,0,0,right,left,left,1,20,1,0.029,5,12,936,1550,0,0,0,0,4
5e793c9d572cea50199853e7,23,male,1,2,93,Ambigous_left,2,10,0,0,right,left,left,1,20,1,0.032,5,12,936,1550,0,0,0,0,4
5e793c9d572cea50199853e7,23,male,1,2,94,Ambigous_left,2,10,0,0,right,left,left,1,20,1,0.019,5,12,936,1550,0,0,0,0,4
5e793c9d572cea50199853e7,23,male,1,2,97,Ambigous_left,2,10,0,0,right,left,left,1,20,1,0.019,5,12,936,1550,0,0,0,0,4
5e793c9d572cea50199853e7,23,male,1,2,100,Ambigous_left,2,10,0,0,right,left,right,20,1,0,0.036000000000000004,5,12,936,1550,1,0,1,0,4
5ec29601269fcc072b89c5c8,20,male,0,1,2,Ambigous_right,1,90,1,20,left,right,left,0,-19,0,0.08900000000000001,15,28,600,1448,1,1,0,5,0
5ec29601269fcc072b89c5c8,20,male,0,1,3,Ambigous_right,1,90,0,0,left,right,right,1,20,1,0.084,15,28,600,1448,0,0,0,5,0
5ec29601269fcc072b89c5c8,20,male,0,1,5,Ambigous_right,1,90,1,20,left,right,left,0,-19,0,0.108,15,28,600,1448,1,1,0,5,0
5ec29601269fcc072b89c5c8,20,male,0,1,8,Ambigous_right,1,90,0,0,left,right,right,1,20,1,0.065,15,28,600,1448,0,0,0,5,0
5ec29601269fcc072b89c5c8,20,male,0,1,13,Ambigous_right,1,90,1,20,left,right,right,1,0,1,0.19,15,28,600,1448,0,0,0,5,0
5ec29601269fcc072b89c5c8,20,male,0,1,15,Ambigous_right,1,90,1,20,left,right,right,1,0,1,0.083,15,28,600,1448,0,0,0,5,0
5ec29601269fcc072b89c5c8,20,male,0,1,20,Ambigous_right,1,90,1,20,left,right,right,1,0,1,0.07,15,28,600,1448,0,0,0,5,0
5ec29601269fcc072b89c5c8,20,male,0,1,28,Ambigous_right,1,90,1,20,left,right,right,1,0,1,0.193,15,28,600,1448,0,0,0,5,0
5ec29601269fcc072b89c5c8,20,male,0,1,32,Ambigous_right,1,90,0,0,left,right,right,1,20,1,0.183,15,28,600,1448,0,0,0,5,0
5ec29601269fcc072b89c5c8,20,male,0,1,33,Ambigous_right,1,90,1,20,left,right,right,1,0,1,0.07200000000000001,15,28,600,1448,0,0,0,5,0
5ec29601269fcc072b89c5c8,20,male,0,1,36,Ambigous_right,1,90,1,20,left,right,right,1,0,1,0.098,15,28,600,1448,0,0,0,5,0
5ec29601269fcc072b89c5c8,20,male,0,1,38,Ambigous_right,1,90,0,0,left,right,left,20,1,0,0.105,15,28,600,1448,1,1,0,5,0
5ec29601269fcc072b89c5c8,20,male,0,1,40,Ambigous_right,1,90,1,20,left,right,right,1,0,1,0.327,15,28,600,1448,0,0,0,5,0
5ec29601269fcc072b89c5c8,20,male,0,1,45,Ambigous_right,1,90,1,20,left,right,right,1,0,1,0.208,15,28,600,1448,0,0,0,5,0
5ec29601269fcc072b89c5c8,20,male,0,1,46,Ambigous_right,1,90,1,20,left,right,right,1,0,1,0.092,15,28,600,1448,0,0,0,5,0
5ec29601269fcc072b89c5c8,20,male,0,1,47,Ambigous_right,1,90,1,20,left,right,right,1,0,1,0.075,15,28,600,1448,0,0,0,5,0
5ec29601269fcc072b89c5c8,20,male,0,1,58,Ambigous_right,1,90,1,20,left,right,right,1,0,1,0.093,15,28,600,1448,0,0,0,5,0
5ec29601269fcc072b89c5c8,20,male,0,1,62,Ambigous_right,1,90,1,20,left,right,right,1,0,1,0.07400000000000001,15,28,600,1448,0,0,0,5,0
5ec29601269fcc072b89c5c8,20,male,0,1,76,Ambigous_right,1,90,1,20,left,right,right,1,0,1,0.079,15,28,600,1448,0,0,0,5,0
5ec29601269fcc072b89c5c8,20,male,0,1,78,Ambigous_right,1,90,1,20,left,right,left,0,-19,0,0.141,15,28,600,1448,1,1,0,5,0
5ec29601269fcc072b89c5c8,20,male,0,1,89,Ambigous_right,1,90,1,20,left,right,left,0,-19,0,0.07,15,28,600,1448,1,1,0,5,0
5ec29601269fcc072b89c5c8,20,male,0,1,93,Ambigous_right,1,90,1,20,left,right,right,1,0,1,0.084,15,28,600,1448,0,0,0,5,0
5ec29601269fcc072b89c5c8,20,male,0,1,94,Ambigous_right,1,90,0,0,left,right,right,1,20,1,0.095,15,28,600,1448,0,0,0,5,0
5ec29601269fcc072b89c5c8,20,male,0,1,97,Ambigous_right,1,90,1,20,left,right,right,1,0,1,0.058,15,28,600,1448,0,0,0,5,0
5ec29601269fcc072b89c5c8,20,male,0,1,100,Ambigous_right,1,90,1,20,left,right,right,1,0,1,0.039,15,28,600,1448,0,0,0,5,0
5ec29601269fcc072b89c5c8,20,male,0,2,5,Ambigous_right,1,90,1,20,left,right,left,0,-19,0,0.062,13,28,848,1448,1,0,1,0,9
5ec29601269fcc072b89c5c8,20,male,0,2,6,Ambigous_right,1,90,1,20,left,right,right,1,0,1,0.043,13,28,848,1448,0,0,0,0,9
5ec29601269fcc072b89c5c8,20,male,0,2,8,Ambigous_right,1,90,1,20,left,right,right,1,0,1,0.06,13,28,848,1448,0,0,0,0,9
5ec29601269fcc072b89c5c8,20,male,0,2,10,Ambigous_right,1,90,1,20,left,right,left,0,-19,0,0.098,13,28,848,1448,1,0,1,0,9
5ec29601269fcc072b89c5c8,20,male,0,2,11,Ambigous_right,1,90,1,20,left,right,left,0,-19,0,0.061,13,28,848,1448,1,0,1,0,9
5ec29601269fcc072b89c5c8,20,male,0,2,18,Ambigous_right,1,90,1,20,left,right,right,1,0,1,0.071,13,28,848,1448,0,0,0,0,9
5ec29601269fcc072b89c5c8,20,male,0,2,19,Ambigous_right,1,90,1,20,left,right,right,1,0,1,0.055,13,28,848,1448,0,0,0,0,9
5ec29601269fcc072b89c5c8,20,male,0,2,23,Ambigous_right,1,90,1,20,left,right,left,0,-19,0,0.081,13,28,848,1448,1,0,1,0,9
5ec29601269fcc072b89c5c8,20,male,0,2,29,Ambigous_right,1,90,1,20,left,right,right,1,0,1,0.076,13,28,848,1448,0,0,0,0,9
5ec29601269fcc072b89c5c8,20,male,0,2,34,Ambigous_right,1,90,1,20,left,right,right,1,0,1,0.08,13,28,848,1448,0,0,0,0,9
5ec29601269fcc072b89c5c8,20,male,0,2,36,Ambigous_right,1,90,1,20,left,right,right,1,0,1,0.08,13,28,848,1448,0,0,0,0,9
5ec29601269fcc072b89c5c8,20,male,0,2,39,Ambigous_right,1,90,1,20,left,right,right,1,0,1,0.07400000000000001,13,28,848,1448,0,0,0,0,9
5ec29601269fcc072b89c5c8,20,male,0,2,48,Ambigous_right,1,90,1,20,left,right,right,1,0,1,0.052000000000000005,13,28,848,1448,0,0,0,0,9
5ec29601269fcc072b89c5c8,20,male,0,2,52,Ambigous_right,1,90,1,20,left,right,right,1,0,1,0.09,13,28,848,1448,0,0,0,0,9
5ec29601269fcc072b89c5c8,20,male,0,2,55,Ambigous_right,1,90,1,20,left,right,left,0,-19,0,0.129,13,28,848,1448,1,0,1,0,9
5ec29601269fcc072b89c5c8,20,male,0,2,61,Ambigous_right,1,90,1,20,left,right,right,1,0,1,0.061,13,28,848,1448,0,0,0,0,9
5ec29601269fcc072b89c5c8,20,male,0,2,67,Ambigous_right,1,90,1,20,left,right,left,0,-19,0,0.084,13,28,848,1448,1,0,1,0,9
5ec29601269fcc072b89c5c8,20,male,0,2,74,Ambigous_right,1,90,1,20,left,right,left,0,-19,0,0.107,13,28,848,1448,1,0,1,0,9
5ec29601269fcc072b89c5c8,20,male,0,2,76,Ambigous_right,1,90,1,20,left,right,left,0,-19,0,0.094,13,28,848,1448,1,0,1,0,9
5ec29601269fcc072b89c5c8,20,male,0,2,81,Ambigous_right,1,90,1,20,left,right,right,1,0,1,0.081,13,28,848,1448,0,0,0,0,9
5ec29601269fcc072b89c5c8,20,male,0,2,84,Ambigous_right,1,90,1,20,left,right,right,1,0,1,0.13,13,28,848,1448,0,0,0,0,9
5ec29601269fcc072b89c5c8,20,male,0,2,92,Ambigous_right,1,90,1,20,left,right,right,1,0,1,0.063,13,28,848,1448,0,0,0,0,9
5ec29601269fcc072b89c5c8,20,male,0,2,94,Ambigous_right,1,90,1,20,left,right,right,1,0,1,0.054000000000000006,13,28,848,1448,0,0,0,0,9
5ec29601269fcc072b89c5c8,20,male,0,2,97,Ambigous_right,1,90,1,20,left,right,left,0,-19,0,0.136,13,28,848,1448,1,0,1,0,9
5ec29601269fcc072b89c5c8,20,male,0,2,99,Ambigous_right,1,90,1,20,left,right,right,1,0,1,0.076,13,28,848,1448,0,0,0,0,9
5aaa7bde56c51000018cc7b5,27,female,1,1,3,Ambigous_right,3,0,0,0,left,right,left,2,1,0,0.468,6,10,139,278,1,1,0,2,0
5aaa7bde56c51000018cc7b5,27,female,1,1,8,Ambigous_right,3,0,0,0,left,right,right,1,2,1,0.171,6,10,139,278,0,0,0,2,0
5aaa7bde56c51000018cc7b5,27,female,1,1,9,Ambigous_right,3,0,0,0,left,right,right,1,2,1,0.16699999999999998,6,10,139,278,0,0,0,2,0
5aaa7bde56c51000018cc7b5,27,female,1,1,12,Ambigous_right,3,0,0,0,left,right,right,1,2,1,0.146,6,10,139,278,0,0,0,2,0
5aaa7bde56c51000018cc7b5,27,female,1,1,13,Ambigous_right,3,0,0,0,left,right,left,2,1,0,0.14800000000000002,6,10,139,278,1,1,0,2,0
5aaa7bde56c51000018cc7b5,27,female,1,1,17,Ambigous_right,3,0,0,0,left,right,right,1,2,1,0.124,6,10,139,278,0,0,0,2,0
5aaa7bde56c51000018cc7b5,27,female,1,1,22,Ambigous_right,3,0,0,0,left,right,right,1,2,1,0.115,6,10,139,278,0,0,0,2,0
5aaa7bde56c51000018cc7b5,27,female,1,1,30,Ambigous_right,3,0,0,0,left,right,right,1,2,1,0.13699999999999998,6,10,139,278,0,0,0,2,0
5aaa7bde56c51000018cc7b5,27,female,1,1,33,Ambigous_right,3,0,0,0,left,right,right,1,2,1,0.14800000000000002,6,10,139,278,0,0,0,2,0
5aaa7bde56c51000018cc7b5,27,female,1,1,44,Ambigous_right,3,0,0,0,left,right,right,1,2,1,0.154,6,10,139,278,0,0,0,2,0
5aaa7bde56c51000018cc7b5,27,female,1,1,53,Ambigous_right,3,0,0,0,left,right,right,1,2,1,0.133,6,10,139,278,0,0,0,2,0
5aaa7bde56c51000018cc7b5,27,female,1,1,58,Ambigous_right,3,0,0,0,left,right,right,1,2,1,0.16899999999999998,6,10,139,278,0,0,0,2,0
5aaa7bde56c51000018cc7b5,27,female,1,1,61,Ambigous_right,3,0,0,0,left,right,right,1,2,1,0.156,6,10,139,278,0,0,0,2,0
5aaa7bde56c51000018cc7b5,27,female,1,1,62,Ambigous_right,3,0,0,0,left,right,right,1,2,1,0.133,6,10,139,278,0,0,0,2,0
5aaa7bde56c51000018cc7b5,27,female,1,1,68,Ambigous_right,3,0,0,0,left,right,right,1,2,1,0.139,6,10,139,278,0,0,0,2,0
5aaa7bde56c51000018cc7b5,27,female,1,1,69,Ambigous_right,3,0,0,0,left,right,right,1,2,1,0.102,6,10,139,278,0,0,0,2,0
5aaa7bde56c51000018cc7b5,27,female,1,1,71,Ambigous_right,3,0,0,0,left,right,right,1,2,1,0.102,6,10,139,278,0,0,0,2,0
5aaa7bde56c51000018cc7b5,27,female,1,1,75,Ambigous_right,3,0,0,0,left,right,right,1,2,1,0.109,6,10,139,278,0,0,0,2,0
5aaa7bde56c51000018cc7b5,27,female,1,1,77,Ambigous_right,3,0,0,0,left,right,right,1,2,1,0.116,6,10,139,278,0,0,0,2,0
5aaa7bde56c51000018cc7b5,27,female,1,1,78,Ambigous_right,3,0,0,0,left,right,right,1,2,1,0.132,6,10,139,278,0,0,0,2,0
5aaa7bde56c51000018cc7b5,27,female,1,1,81,Ambigous_right,3,0,0,0,left,right,right,1,2,1,0.117,6,10,139,278,0,0,0,2,0
5aaa7bde56c51000018cc7b5,27,female,1,1,84,Ambigous_right,3,0,0,0,left,right,right,1,2,1,0.094,6,10,139,278,0,0,0,2,0
5aaa7bde56c51000018cc7b5,27,female,1,1,88,Ambigous_right,3,0,0,0,left,right,right,1,2,1,0.188,6,10,139,278,0,0,0,2,0
5aaa7bde56c51000018cc7b5,27,female,1,1,91,Ambigous_right,3,0,0,0,left,right,right,1,2,1,0.106,6,10,139,278,0,0,0,2,0
5aaa7bde56c51000018cc7b5,27,female,1,1,99,Ambigous_right,3,0,0,0,left,right,right,1,2,1,0.097,6,10,139,278,0,0,0,2,0
5aaa7bde56c51000018cc7b5,27,female,1,2,3,Ambigous_right,3,0,0,0,left,right,right,1,2,1,0.096,4,10,139,278,0,0,0,0,1
5aaa7bde56c51000018cc7b5,27,female,1,2,5,Ambigous_right,3,0,0,0,left,right,right,1,2,1,0.212,4,10,139,278,0,0,0,0,1
5aaa7bde56c51000018cc7b5,27,female,1,2,7,Ambigous_right,3,0,0,0,left,right,right,1,2,1,0.079,4,10,139,278,0,0,0,0,1
5aaa7bde56c51000018cc7b5,27,female,1,2,11,Ambigous_right,3,0,0,0,left,right,right,1,2,1,0.08800000000000001,4,10,139,278,0,0,0,0,1
5aaa7bde56c51000018cc7b5,27,female,1,2,14,Ambigous_right,3,0,0,0,left,right,right,1,2,1,0.09,4,10,139,278,0,0,0,0,1
5aaa7bde56c51000018cc7b5,27,female,1,2,24,Ambigous_right,3,0,0,0,left,right,right,1,2,1,0.133,4,10,139,278,0,0,0,0,1
5aaa7bde56c51000018cc7b5,27,female,1,2,34,Ambigous_right,3,0,0,0,left,right,right,1,2,1,0.136,4,10,139,278,0,0,0,0,1
5aaa7bde56c51000018cc7b5,27,female,1,2,40,Ambigous_right,3,0,0,0,left,right,right,1,2,1,0.08,4,10,139,278,0,0,0,0,1
5aaa7bde56c51000018cc7b5,27,female,1,2,44,Ambigous_right,3,0,0,0,left,right,right,1,2,1,0.083,4,10,139,278,0,0,0,0,1
5aaa7bde56c51000018cc7b5,27,female,1,2,47,Ambigous_right,3,0,0,0,left,right,right,1,2,1,0.116,4,10,139,278,0,0,0,0,1
5aaa7bde56c51000018cc7b5,27,female,1,2,49,Ambigous_right,3,0,0,0,left,right,right,1,2,1,0.138,4,10,139,278,0,0,0,0,1
5aaa7bde56c51000018cc7b5,27,female,1,2,55,Ambigous_right,3,0,0,0,left,right,right,1,2,1,0.096,4,10,139,278,0,0,0,0,1
5aaa7bde56c51000018cc7b5,27,female,1,2,57,Ambigous_right,3,0,0,0,left,right,right,1,2,1,0.16399999999999998,4,10,139,278,0,0,0,0,1
5aaa7bde56c51000018cc7b5,27,female,1,2,58,Ambigous_right,3,0,0,0,left,right,right,1,2,1,0.122,4,10,139,278,0,0,0,0,1
5aaa7bde56c51000018cc7b5,27,female,1,2,59,Ambigous_right,3,0,0,0,left,right,right,1,2,1,0.08900000000000001,4,10,139,278,0,0,0,0,1
5aaa7bde56c51000018cc7b5,27,female,1,2,60,Ambigous_right,3,0,0,0,left,right,right,1,2,1,0.096,4,10,139,278,0,0,0,0,1
5aaa7bde56c51000018cc7b5,27,female,1,2,62,Ambigous_right,3,0,0,0,left,right,right,1,2,1,0.217,4,10,139,278,0,0,0,0,1
5aaa7bde56c51000018cc7b5,27,female,1,2,64,Ambigous_right,3,0,0,0,left,right,right,1,2,1,0.105,4,10,139,278,0,0,0,0,1
5aaa7bde56c51000018cc7b5,27,female,1,2,72,Ambigous_right,3,0,0,0,left,right,left,2,1,0,0.103,4,10,139,278,1,0,1,0,1
5aaa7bde56c51000018cc7b5,27,female,1,2,75,Ambigous_right,3,0,0,0,left,right,right,1,2,1,0.093,4,10,139,278,0,0,0,0,1
5aaa7bde56c51000018cc7b5,27,female,1,2,77,Ambigous_right,3,0,0,0,left,right,right,1,2,1,0.08800000000000001,4,10,139,278,0,0,0,0,1
5aaa7bde56c51000018cc7b5,27,female,1,2,80,Ambigous_right,3,0,0,0,left,right,right,1,2,1,0.105,4,10,139,278,0,0,0,0,1
5aaa7bde56c51000018cc7b5,27,female,1,2,91,Ambigous_right,3,0,0,0,left,right,right,1,2,1,0.095,4,10,139,278,0,0,0,0,1
5aaa7bde56c51000018cc7b5,27,female,1,2,92,Ambigous_right,3,0,0,0,left,right,right,1,2,1,0.081,4,10,139,278,0,0,0,0,1
5aaa7bde56c51000018cc7b5,27,female,1,2,98,Ambigous_right,3,0,0,0,left,right,right,1,2,1,0.087,4,10,139,278,0,0,0,0,1
5b2973a08c745200013b84ae,52,female,1,1,1,Ambigous_right,3,0,0,0,left,right,right,1,2,1,0.295,4,11,139,281,0,0,0,1,0
5b2973a08c745200013b84ae,52,female,1,1,3,Ambigous_right,3,0,0,0,left,right,right,1,2,1,0.223,4,11,139,281,0,0,0,1,0
5b2973a08c745200013b84ae,52,female,1,1,7,Ambigous_right,3,0,0,0,left,right,right,1,2,1,0.197,4,11,139,281,0,0,0,1,0
5b2973a08c745200013b84ae,52,female,1,1,9,Ambigous_right,3,0,0,0,left,right,right,1,2,1,0.212,4,11,139,281,0,0,0,1,0
5b2973a08c745200013b84ae,52,female,1,1,11,Ambigous_right,3,0,0,0,left,right,right,1,2,1,0.295,4,11,139,281,0,0,0,1,0
5b2973a08c745200013b84ae,52,female,1,1,14,Ambigous_right,3,0,0,0,left,right,right,1,2,1,0.192,4,11,139,281,0,0,0,1,0
5b2973a08c745200013b84ae,52,female,1,1,16,Ambigous_right,3,0,0,0,left,right,right,1,2,1,0.211,4,11,139,281,0,0,0,1,0
5b2973a08c745200013b84ae,52,female,1,1,17,Ambigous_right,3,0,0,0,left,right,right,1,2,1,0.212,4,11,139,281,0,0,0,1,0
5b2973a08c745200013b84ae,52,female,1,1,19,Ambigous_right,3,0,0,0,left,right,right,1,2,1,0.203,4,11,139,281,0,0,0,1,0
5b2973a08c745200013b84ae,52,female,1,1,23,Ambigous_right,3,0,0,0,left,right,right,1,2,1,0.215,4,11,139,281,0,0,0,1,0
5b2973a08c745200013b84ae,52,female,1,1,24,Ambigous_right,3,0,0,0,left,right,right,1,2,1,0.19,4,11,139,281,0,0,0,1,0
5b2973a08c745200013b84ae,52,female,1,1,34,Ambigous_right,3,0,0,0,left,right,right,1,2,1,0.182,4,11,139,281,0,0,0,1,0
5b2973a08c745200013b84ae,52,female,1,1,37,Ambigous_right,3,0,0,0,left,right,right,1,2,1,0.204,4,11,139,281,0,0,0,1,0
5b2973a08c745200013b84ae,52,female,1,1,39,Ambigous_right,3,0,0,0,left,right,right,1,2,1,0.177,4,11,139,281,0,0,0,1,0
5b2973a08c745200013b84ae,52,female,1,1,43,Ambigous_right,3,0,0,0,left,right,right,1,2,1,0.189,4,11,139,281,0,0,0,1,0
5b2973a08c745200013b84ae,52,female,1,1,53,Ambigous_right,3,0,0,0,left,right,left,2,1,0,0.193,4,11,139,281,1,1,0,1,0
5b2973a08c745200013b84ae,52,female,1,1,59,Ambigous_right,3,0,0,0,left,right,right,1,2,1,0.159,4,11,139,281,0,0,0,1,0
5b2973a08c745200013b84ae,52,female,1,1,64,Ambigous_right,3,0,0,0,left,right,right,1,2,1,0.068,4,11,139,281,0,0,0,1,0
5b2973a08c745200013b84ae,52,female,1,1,67,Ambigous_right,3,0,0,0,left,right,right,1,2,1,0.157,4,11,139,281,0,0,0,1,0
5b2973a08c745200013b84ae,52,female,1,1,73,Ambigous_right,3,0,0,0,left,right,right,1,2,1,0.17,4,11,139,281,0,0,0,1,0
5b2973a08c745200013b84ae,52,female,1,1,76,Ambigous_right,3,0,0,0,left,right,right,1,2,1,0.26,4,11,139,281,0,0,0,1,0
5b2973a08c745200013b84ae,52,female,1,1,81,Ambigous_right,3,0,0,0,left,right,right,1,2,1,0.16899999999999998,4,11,139,281,0,0,0,1,0
5b2973a08c745200013b84ae,52,female,1,1,87,Ambigous_right,3,0,0,0,left,right,right,1,2,1,0.18600000000000005,4,11,139,281,0,0,0,1,0
5b2973a08c745200013b84ae,52,female,1,1,89,Ambigous_right,3,0,0,0,left,right,right,1,2,1,0.147,4,11,139,281,0,0,0,1,0
5b2973a08c745200013b84ae,52,female,1,1,90,Ambigous_right,3,0,0,0,left,right,right,1,2,1,0.281,4,11,139,281,0,0,0,1,0
5b2973a08c745200013b84ae,52,female,1,2,1,Ambigous_right,3,0,0,0,left,right,right,1,2,1,0.2,7,11,142,281,0,0,0,0,4
5b2973a08c745200013b84ae,52,female,1,2,4,Ambigous_right,3,0,0,0,left,right,right,1,2,1,0.14800000000000002,7,11,142,281,0,0,0,0,4
5b2973a08c745200013b84ae,52,female,1,2,10,Ambigous_right,3,0,0,0,left,right,right,1,2,1,0.183,7,11,142,281,0,0,0,0,4
5b2973a08c745200013b84ae,52,female,1,2,14,Ambigous_right,3,0,0,0,left,right,right,1,2,1,0.145,7,11,142,281,0,0,0,0,4
5b2973a08c745200013b84ae,52,female,1,2,17,Ambigous_right,3,0,0,0,left,right,left,2,1,0,0.313,7,11,142,281,1,0,1,0,4
5b2973a08c745200013b84ae,52,female,1,2,19,Ambigous_right,3,0,0,0,left,right,right,1,2,1,0.159,7,11,142,281,0,0,0,0,4
5b2973a08c745200013b84ae,52,female,1,2,27,Ambigous_right,3,0,0,0,left,right,right,1,2,1,0.136,7,11,142,281,0,0,0,0,4
5b2973a08c745200013b84ae,52,female,1,2,33,Ambigous_right,3,0,0,0,left,right,right,1,2,1,0.123,7,11,142,281,0,0,0,0,4
5b2973a08c745200013b84ae,52,female,1,2,35,Ambigous_right,3,0,0,0,left,right,right,1,2,1,0.18,7,11,142,281,0,0,0,0,4
5b2973a08c745200013b84ae,52,female,1,2,36,Ambigous_right,3,0,0,0,left,right,right,1,2,1,0.14,7,11,142,281,0,0,0,0,4
5b2973a08c745200013b84ae,52,female,1,2,38,Ambigous_right,3,0,0,0,left,right,right,1,2,1,0.084,7,11,142,281,0,0,0,0,4
5b2973a08c745200013b84ae,52,female,1,2,48,Ambigous_right,3,0,0,0,left,right,right,1,2,1,0.16699999999999998,7,11,142,281,0,0,0,0,4
5b2973a08c745200013b84ae,52,female,1,2,50,Ambigous_right,3,0,0,0,left,right,right,1,2,1,0.193,7,11,142,281,0,0,0,0,4
5b2973a08c745200013b84ae,52,female,1,2,51,Ambigous_right,3,0,0,0,left,right,right,1,2,1,0.069,7,11,142,281,0,0,0,0,4
5b2973a08c745200013b84ae,52,female,1,2,54,Ambigous_right,3,0,0,0,left,right,left,2,1,0,0.198,7,11,142,281,1,0,1,0,4
5b2973a08c745200013b84ae,52,female,1,2,64,Ambigous_right,3,0,0,0,left,right,right,1,2,1,0.179,7,11,142,281,0,0,0,0,4
5b2973a08c745200013b84ae,52,female,1,2,69,Ambigous_right,3,0,0,0,left,right,right,1,2,1,0.206,7,11,142,281,0,0,0,0,4
5b2973a08c745200013b84ae,52,female,1,2,78,Ambigous_right,3,0,0,0,left,right,right,1,2,1,0.199,7,11,142,281,0,0,0,0,4
5b2973a08c745200013b84ae,52,female,1,2,80,Ambigous_right,3,0,0,0,left,right,left,2,1,0,0.14300000000000002,7,11,142,281,1,0,1,0,4
5b2973a08c745200013b84ae,52,female,1,2,81,Ambigous_right,3,0,0,0,left,right,right,1,2,1,0.202,7,11,142,281,0,0,0,0,4
5b2973a08c745200013b84ae,52,female,1,2,89,Ambigous_right,3,0,0,0,left,right,right,1,2,1,0.277,7,11,142,281,0,0,0,0,4
5b2973a08c745200013b84ae,52,female,1,2,90,Ambigous_right,3,0,0,0,left,right,right,1,2,1,0.16,7,11,142,281,0,0,0,0,4
5b2973a08c745200013b84ae,52,female,1,2,95,Ambigous_right,3,0,0,0,left,right,left,2,1,0,0.208,7,11,142,281,1,0,1,0,4
5b2973a08c745200013b84ae,52,female,1,2,96,Ambigous_right,3,0,0,0,left,right,right,1,2,1,0.155,7,11,142,281,0,0,0,0,4
5b2973a08c745200013b84ae,52,female,1,2,98,Ambigous_right,3,0,0,0,left,right,right,1,2,1,0.13,7,11,142,281,0,0,0,0,4
5e68ff434db49c01d7dbedd2,27,male,1,1,3,Ambigous_left,3,0,0,0,right,left,left,1,2,1,0.118,6,15,147,292,0,0,0,5,0
5e68ff434db49c01d7dbedd2,27,male,1,1,6,Ambigous_left,3,0,0,0,right,left,right,2,1,0,0.382,6,15,147,292,1,1,0,5,0
5e68ff434db49c01d7dbedd2,27,male,1,1,12,Ambigous_left,3,0,0,0,right,left,left,1,2,1,0.08199999999999999,6,15,147,292,0,0,0,5,0
5e68ff434db49c01d7dbedd2,27,male,1,1,20,Ambigous_left,3,0,0,0,right,left,right,2,1,0,0.099,6,15,147,292,1,1,0,5,0
5e68ff434db49c01d7dbedd2,27,male,1,1,24,Ambigous_left,3,0,0,0,right,left,left,1,2,1,0.08800000000000001,6,15,147,292,0,0,0,5,0
5e68ff434db49c01d7dbedd2,27,male,1,1,27,Ambigous_left,3,0,0,0,right,left,left,1,2,1,0.096,6,15,147,292,0,0,0,5,0
5e68ff434db49c01d7dbedd2,27,male,1,1,36,Ambigous_left,3,0,0,0,right,left,left,1,2,1,0.049,6,15,147,292,0,0,0,5,0
5e68ff434db49c01d7dbedd2,27,male,1,1,38,Ambigous_left,3,0,0,0,right,left,left,1,2,1,0.037000000000000005,6,15,147,292,0,0,0,5,0
5e68ff434db49c01d7dbedd2,27,male,1,1,39,Ambigous_left,3,0,0,0,right,left,right,2,1,0,0.06,6,15,147,292,1,1,0,5,0
5e68ff434db49c01d7dbedd2,27,male,1,1,41,Ambigous_left,3,0,0,0,right,left,left,1,2,1,0.037000000000000005,6,15,147,292,0,0,0,5,0
5e68ff434db49c01d7dbedd2,27,male,1,1,45,Ambigous_left,3,0,0,0,right,left,right,2,1,0,0.069,6,15,147,292,1,1,0,5,0
5e68ff434db49c01d7dbedd2,27,male,1,1,46,Ambigous_left,3,0,0,0,right,left,left,1,2,1,0.048,6,15,147,292,0,0,0,5,0
5e68ff434db49c01d7dbedd2,27,male,1,1,49,Ambigous_left,3,0,0,0,right,left,left,1,2,1,0.07400000000000001,6,15,147,292,0,0,0,5,0
5e68ff434db49c01d7dbedd2,27,male,1,1,53,Ambigous_left,3,0,0,0,right,left,left,1,2,1,0.065,6,15,147,292,0,0,0,5,0
5e68ff434db49c01d7dbedd2,27,male,1,1,55,Ambigous_left,3,0,0,0,right,left,left,1,2,1,0.033,6,15,147,292,0,0,0,5,0
5e68ff434db49c01d7dbedd2,27,male,1,1,57,Ambigous_left,3,0,0,0,right,left,left,1,2,1,0.084,6,15,147,292,0,0,0,5,0
5e68ff434db49c01d7dbedd2,27,male,1,1,65,Ambigous_left,3,0,0,0,right,left,right,2,1,0,0.062,6,15,147,292,1,1,0,5,0
5e68ff434db49c01d7dbedd2,27,male,1,1,68,Ambigous_left,3,0,0,0,right,left,left,1,2,1,0.063,6,15,147,292,0,0,0,5,0
5e68ff434db49c01d7dbedd2,27,male,1,1,73,Ambigous_left,3,0,0,0,right,left,left,1,2,1,0.055,6,15,147,292,0,0,0,5,0
5e68ff434db49c01d7dbedd2,27,male,1,1,74,Ambigous_left,3,0,0,0,right,left,left,1,2,1,0.046,6,15,147,292,0,0,0,5,0
5e68ff434db49c01d7dbedd2,27,male,1,1,76,Ambigous_left,3,0,0,0,right,left,left,1,2,1,0.066,6,15,147,292,0,0,0,5,0
5e68ff434db49c01d7dbedd2,27,male,1,1,89,Ambigous_left,3,0,0,0,right,left,left,1,2,1,0.061,6,15,147,292,0,0,0,5,0
5e68ff434db49c01d7dbedd2,27,male,1,1,90,Ambigous_left,3,0,0,0,right,left,left,1,2,1,0.122,6,15,147,292,0,0,0,5,0
5e68ff434db49c01d7dbedd2,27,male,1,1,97,Ambigous_left,3,0,0,0,right,left,left,1,2,1,0.07200000000000001,6,15,147,292,0,0,0,5,0
5e68ff434db49c01d7dbedd2,27,male,1,1,100,Ambigous_left,3,0,0,0,right,left,left,1,2,1,0.097,6,15,147,292,0,0,0,5,0
5e68ff434db49c01d7dbedd2,27,male,1,2,5,Ambigous_left,3,0,0,0,right,left,left,1,2,1,0.059,9,15,145,292,0,0,0,0,6
5e68ff434db49c01d7dbedd2,27,male,1,2,10,Ambigous_left,3,0,0,0,right,left,left,1,2,1,0.042,9,15,145,292,0,0,0,0,6
5e68ff434db49c01d7dbedd2,27,male,1,2,14,Ambigous_left,3,0,0,0,right,left,left,1,2,1,0.069,9,15,145,292,0,0,0,0,6
5e68ff434db49c01d7dbedd2,27,male,1,2,16,Ambigous_left,3,0,0,0,right,left,left,1,2,1,0.042,9,15,145,292,0,0,0,0,6
5e68ff434db49c01d7dbedd2,27,male,1,2,21,Ambigous_left,3,0,0,0,right,left,right,2,1,0,0.097,9,15,145,292,1,0,1,0,6
5e68ff434db49c01d7dbedd2,27,male,1,2,25,Ambigous_left,3,0,0,0,right,left,left,1,2,1,0.049,9,15,145,292,0,0,0,0,6
5e68ff434db49c01d7dbedd2,27,male,1,2,29,Ambigous_left,3,0,0,0,right,left,left,1,2,1,0.059,9,15,145,292,0,0,0,0,6
5e68ff434db49c01d7dbedd2,27,male,1,2,31,Ambigous_left,3,0,0,0,right,left,right,2,1,0,0.12,9,15,145,292,1,0,1,0,6
5e68ff434db49c01d7dbedd2,27,male,1,2,34,Ambigous_left,3,0,0,0,right,left,left,1,2,1,0.058,9,15,145,292,0,0,0,0,6
5e68ff434db49c01d7dbedd2,27,male,1,2,37,Ambigous_left,3,0,0,0,right,left,left,1,2,1,0.049,9,15,145,292,0,0,0,0,6
5e68ff434db49c01d7dbedd2,27,male,1,2,39,Ambigous_left,3,0,0,0,right,left,left,1,2,1,0.054000000000000006,9,15,145,292,0,0,0,0,6
5e68ff434db49c01d7dbedd2,27,male,1,2,43,Ambigous_left,3,0,0,0,right,left,left,1,2,1,0.081,9,15,145,292,0,0,0,0,6
5e68ff434db49c01d7dbedd2,27,male,1,2,48,Ambigous_left,3,0,0,0,right,left,left,1,2,1,0.054000000000000006,9,15,145,292,0,0,0,0,6
5e68ff434db49c01d7dbedd2,27,male,1,2,49,Ambigous_left,3,0,0,0,right,left,right,2,1,0,0.131,9,15,145,292,1,0,1,0,6
5e68ff434db49c01d7dbedd2,27,male,1,2,50,Ambigous_left,3,0,0,0,right,left,left,1,2,1,0.066,9,15,145,292,0,0,0,0,6
5e68ff434db49c01d7dbedd2,27,male,1,2,52,Ambigous_left,3,0,0,0,right,left,left,1,2,1,0.049,9,15,145,292,0,0,0,0,6
5e68ff434db49c01d7dbedd2,27,male,1,2,54,Ambigous_left,3,0,0,0,right,left,left,1,2,1,0.052000000000000005,9,15,145,292,0,0,0,0,6
5e68ff434db49c01d7dbedd2,27,male,1,2,63,Ambigous_left,3,0,0,0,right,left,right,2,1,0,0.062,9,15,145,292,1,0,1,0,6
5e68ff434db49c01d7dbedd2,27,male,1,2,67,Ambigous_left,3,0,0,0,right,left,right,2,1,0,0.051,9,15,145,292,1,0,1,0,6
5e68ff434db49c01d7dbedd2,27,male,1,2,68,Ambigous_left,3,0,0,0,right,left,right,2,1,0,0.056,9,15,145,292,1,0,1,0,6
5e68ff434db49c01d7dbedd2,27,male,1,2,77,Ambigous_left,3,0,0,0,right,left,left,1,2,1,0.099,9,15,145,292,0,0,0,0,6
5e68ff434db49c01d7dbedd2,27,male,1,2,78,Ambigous_left,3,0,0,0,right,left,left,1,2,1,0.075,9,15,145,292,0,0,0,0,6
5e68ff434db49c01d7dbedd2,27,male,1,2,82,Ambigous_left,3,0,0,0,right,left,left,1,2,1,0.065,9,15,145,292,0,0,0,0,6
5e68ff434db49c01d7dbedd2,27,male,1,2,83,Ambigous_left,3,0,0,0,right,left,left,1,2,1,0.084,9,15,145,292,0,0,0,0,6
5e68ff434db49c01d7dbedd2,27,male,1,2,89,Ambigous_left,3,0,0,0,right,left,left,1,2,1,0.073,9,15,145,292,0,0,0,0,6
5e836b26ac330b064f3c861e,24,female,1,1,3,Ambigous_left,1,90,0,0,right,left,left,1,20,1,0.25,6,13,797,1479,0,0,0,4,0
5e836b26ac330b064f3c861e,24,female,1,1,27,Ambigous_left,1,90,1,20,right,left,left,1,0,1,0.192,6,13,797,1479,0,0,0,4,0
5e836b26ac330b064f3c861e,24,female,1,1,29,Ambigous_left,1,90,1,20,right,left,left,1,0,1,0.156,6,13,797,1479,0,0,0,4,0
5e836b26ac330b064f3c861e,24,female,1,1,31,Ambigous_left,1,90,1,20,right,left,left,1,0,1,0.177,6,13,797,1479,0,0,0,4,0
5e836b26ac330b064f3c861e,24,female,1,1,33,Ambigous_left,1,90,1,20,right,left,left,1,0,1,0.245,6,13,797,1479,0,0,0,4,0
5e836b26ac330b064f3c861e,24,female,1,1,38,Ambigous_left,1,90,1,20,right,left,left,1,0,1,0.158,6,13,797,1479,0,0,0,4,0
5e836b26ac330b064f3c861e,24,female,1,1,42,Ambigous_left,1,90,1,20,right,left,left,1,0,1,0.129,6,13,797,1479,0,0,0,4,0
5e836b26ac330b064f3c861e,24,female,1,1,44,Ambigous_left,1,90,0,0,right,left,left,1,20,1,0.118,6,13,797,1479,0,0,0,4,0
5e836b26ac330b064f3c861e,24,female,1,1,54,Ambigous_left,1,90,1,20,right,left,left,1,0,1,0.185,6,13,797,1479,0,0,0,4,0
5e836b26ac330b064f3c861e,24,female,1,1,59,Ambigous_left,1,90,1,20,right,left,left,1,0,1,0.135,6,13,797,1479,0,0,0,4,0
5e836b26ac330b064f3c861e,24,female,1,1,62,Ambigous_left,1,90,1,20,right,left,left,1,0,1,0.112,6,13,797,1479,0,0,0,4,0
5e836b26ac330b064f3c861e,24,female,1,1,64,Ambigous_left,1,90,1,20,right,left,right,0,-19,0,0.155,6,13,797,1479,1,1,0,4,0
5e836b26ac330b064f3c861e,24,female,1,1,65,Ambigous_left,1,90,1,20,right,left,left,1,0,1,0.198,6,13,797,1479,0,0,0,4,0
5e836b26ac330b064f3c861e,24,female,1,1,68,Ambigous_left,1,90,1,20,right,left,left,1,0,1,0.165,6,13,797,1479,0,0,0,4,0
5e836b26ac330b064f3c861e,24,female,1,1,74,Ambigous_left,1,90,1,20,right,left,right,0,-19,0,0.221,6,13,797,1479,1,1,0,4,0
5e836b26ac330b064f3c861e,24,female,1,1,78,Ambigous_left,1,90,1,20,right,left,right,0,-19,0,0.162,6,13,797,1479,1,1,0,4,0
5e836b26ac330b064f3c861e,24,female,1,1,79,Ambigous_left,1,90,1,20,right,left,left,1,0,1,0.198,6,13,797,1479,0,0,0,4,0
5e836b26ac330b064f3c861e,24,female,1,1,84,Ambigous_left,1,90,1,20,right,left,left,1,0,1,0.162,6,13,797,1479,0,0,0,4,0
5e836b26ac330b064f3c861e,24,female,1,1,86,Ambigous_left,1,90,1,20,right,left,left,1,0,1,0.118,6,13,797,1479,0,0,0,4,0
5e836b26ac330b064f3c861e,24,female,1,1,87,Ambigous_left,1,90,1,20,right,left,left,1,0,1,0.133,6,13,797,1479,0,0,0,4,0
5e836b26ac330b064f3c861e,24,female,1,1,90,Ambigous_left,1,90,1,20,right,left,left,1,0,1,0.17600000000000002,6,13,797,1479,0,0,0,4,0
5e836b26ac330b064f3c861e,24,female,1,1,91,Ambigous_left,1,90,1,20,right,left,left,1,0,1,0.152,6,13,797,1479,0,0,0,4,0
5e836b26ac330b064f3c861e,24,female,1,1,92,Ambigous_left,1,90,1,20,right,left,right,0,-19,0,0.251,6,13,797,1479,1,1,0,4,0
5e836b26ac330b064f3c861e,24,female,1,1,99,Ambigous_left,1,90,1,20,right,left,left,1,0,1,0.177,6,13,797,1479,0,0,0,4,0
5e836b26ac330b064f3c861e,24,female,1,1,100,Ambigous_left,1,90,1,20,right,left,left,1,0,1,0.114,6,13,797,1479,0,0,0,4,0
5e836b26ac330b064f3c861e,24,female,1,2,5,Ambigous_left,1,90,1,20,right,left,left,1,0,1,0.18,7,13,682,1479,0,0,0,0,2
5e836b26ac330b064f3c861e,24,female,1,2,6,Ambigous_left,1,90,1,20,right,left,left,1,0,1,0.15,7,13,682,1479,0,0,0,0,2
5e836b26ac330b064f3c861e,24,female,1,2,7,Ambigous_left,1,90,1,20,right,left,left,1,0,1,0.13699999999999998,7,13,682,1479,0,0,0,0,2
5e836b26ac330b064f3c861e,24,female,1,2,11,Ambigous_left,1,90,1,20,right,left,left,1,0,1,0.175,7,13,682,1479,0,0,0,0,2
5e836b26ac330b064f3c861e,24,female,1,2,12,Ambigous_left,1,90,1,20,right,left,left,1,0,1,0.218,7,13,682,1479,0,0,0,0,2
5e836b26ac330b064f3c861e,24,female,1,2,14,Ambigous_left,1,90,1,20,right,left,left,1,0,1,0.128,7,13,682,1479,0,0,0,0,2
5e836b26ac330b064f3c861e,24,female,1,2,16,Ambigous_left,1,90,1,20,right,left,left,1,0,1,0.117,7,13,682,1479,0,0,0,0,2
5e836b26ac330b064f3c861e,24,female,1,2,20,Ambigous_left,1,90,0,0,right,left,left,1,20,1,0.165,7,13,682,1479,0,0,0,0,2
5e836b26ac330b064f3c861e,24,female,1,2,21,Ambigous_left,1,90,1,20,right,left,left,1,0,1,0.108,7,13,682,1479,0,0,0,0,2
5e836b26ac330b064f3c861e,24,female,1,2,23,Ambigous_left,1,90,1,20,right,left,right,0,-19,0,0.318,7,13,682,1479,1,0,1,0,2
5e836b26ac330b064f3c861e,24,female,1,2,29,Ambigous_left,1,90,1,20,right,left,left,1,0,1,0.208,7,13,682,1479,0,0,0,0,2
5e836b26ac330b064f3c861e,24,female,1,2,34,Ambigous_left,1,90,1,20,right,left,left,1,0,1,0.196,7,13,682,1479,0,0,0,0,2
5e836b26ac330b064f3c861e,24,female,1,2,39,Ambigous_left,1,90,1,20,right,left,left,1,0,1,0.114,7,13,682,1479,0,0,0,0,2
5e836b26ac330b064f3c861e,24,female,1,2,43,Ambigous_left,1,90,1,20,right,left,left,1,0,1,0.182,7,13,682,1479,0,0,0,0,2
5e836b26ac330b064f3c861e,24,female,1,2,47,Ambigous_left,1,90,1,20,right,left,left,1,0,1,0.174,7,13,682,1479,0,0,0,0,2
5e836b26ac330b064f3c861e,24,female,1,2,49,Ambigous_left,1,90,1,20,right,left,left,1,0,1,0.147,7,13,682,1479,0,0,0,0,2
5e836b26ac330b064f3c861e,24,female,1,2,53,Ambigous_left,1,90,1,20,right,left,right,0,-19,0,0.125,7,13,682,1479,1,0,1,0,2
5e836b26ac330b064f3c861e,24,female,1,2,57,Ambigous_left,1,90,1,20,right,left,left,1,0,1,0.155,7,13,682,1479,0,0,0,0,2
5e836b26ac330b064f3c861e,24,female,1,2,58,Ambigous_left,1,90,1,20,right,left,left,1,0,1,0.13,7,13,682,1479,0,0,0,0,2
5e836b26ac330b064f3c861e,24,female,1,2,59,Ambigous_left,1,90,1,20,right,left,left,1,0,1,0.136,7,13,682,1479,0,0,0,0,2
5e836b26ac330b064f3c861e,24,female,1,2,79,Ambigous_left,1,90,1,20,right,left,left,1,0,1,0.141,7,13,682,1479,0,0,0,0,2
5e836b26ac330b064f3c861e,24,female,1,2,89,Ambigous_left,1,90,1,20,right,left,left,1,0,1,0.129,7,13,682,1479,0,0,0,0,2
5e836b26ac330b064f3c861e,24,female,1,2,91,Ambigous_left,1,90,1,20,right,left,left,1,0,1,0.114,7,13,682,1479,0,0,0,0,2
5e836b26ac330b064f3c861e,24,female,1,2,92,Ambigous_left,1,90,1,20,right,left,left,1,0,1,0.109,7,13,682,1479,0,0,0,0,2
5e836b26ac330b064f3c861e,24,female,1,2,99,Ambigous_left,1,90,1,20,right,left,left,1,0,1,0.122,7,13,682,1479,0,0,0,0,2
54da5755fdf99b2ae8ab221c,27,other,1,1,5,Ambigous_right,1,90,1,20,left,right,left,0,-19,0,0.219,7,22,816,1644,1,1,0,5,0
54da5755fdf99b2ae8ab221c,27,other,1,1,8,Ambigous_right,1,90,1,20,left,right,right,1,0,1,0.159,7,22,816,1644,0,0,0,5,0
54da5755fdf99b2ae8ab221c,27,other,1,1,9,Ambigous_right,1,90,1,20,left,right,right,1,0,1,0.145,7,22,816,1644,0,0,0,5,0
54da5755fdf99b2ae8ab221c,27,other,1,1,10,Ambigous_right,1,90,1,20,left,right,right,1,0,1,0.158,7,22,816,1644,0,0,0,5,0
54da5755fdf99b2ae8ab221c,27,other,1,1,14,Ambigous_right,1,90,1,20,left,right,right,1,0,1,0.149,7,22,816,1644,0,0,0,5,0
54da5755fdf99b2ae8ab221c,27,other,1,1,16,Ambigous_right,1,90,1,20,left,right,right,1,0,1,0.123,7,22,816,1644,0,0,0,5,0
54da5755fdf99b2ae8ab221c,27,other,1,1,19,Ambigous_right,1,90,0,0,left,right,right,1,20,1,0.237,7,22,816,1644,0,0,0,5,0
54da5755fdf99b2ae8ab221c,27,other,1,1,26,Ambigous_right,1,90,1,20,left,right,right,1,0,1,0.116,7,22,816,1644,0,0,0,5,0
54da5755fdf99b2ae8ab221c,27,other,1,1,27,Ambigous_right,1,90,1,20,left,right,right,1,0,1,0.131,7,22,816,1644,0,0,0,5,0
54da5755fdf99b2ae8ab221c,27,other,1,1,29,Ambigous_right,1,90,1,20,left,right,right,1,0,1,0.129,7,22,816,1644,0,0,0,5,0
54da5755fdf99b2ae8ab221c,27,other,1,1,31,Ambigous_right,1,90,1,20,left,right,right,1,0,1,0.14300000000000002,7,22,816,1644,0,0,0,5,0
54da5755fdf99b2ae8ab221c,27,other,1,1,35,Ambigous_right,1,90,1,20,left,right,right,1,0,1,0.2,7,22,816,1644,0,0,0,5,0
54da5755fdf99b2ae8ab221c,27,other,1,1,37,Ambigous_right,1,90,1,20,left,right,right,1,0,1,0.146,7,22,816,1644,0,0,0,5,0
54da5755fdf99b2ae8ab221c,27,other,1,1,39,Ambigous_right,1,90,1,20,left,right,right,1,0,1,0.127,7,22,816,1644,0,0,0,5,0
54da5755fdf99b2ae8ab221c,27,other,1,1,42,Ambigous_right,1,90,1,20,left,right,right,1,0,1,0.128,7,22,816,1644,0,0,0,5,0
54da5755fdf99b2ae8ab221c,27,other,1,1,51,Ambigous_right,1,90,1,20,left,right,left,0,-19,0,0.131,7,22,816,1644,1,1,0,5,0
54da5755fdf99b2ae8ab221c,27,other,1,1,52,Ambigous_right,1,90,1,20,left,right,right,1,0,1,0.248,7,22,816,1644,0,0,0,5,0
54da5755fdf99b2ae8ab221c,27,other,1,1,54,Ambigous_right,1,90,1,20,left,right,right,1,0,1,0.156,7,22,816,1644,0,0,0,5,0
54da5755fdf99b2ae8ab221c,27,other,1,1,55,Ambigous_right,1,90,1,20,left,right,right,1,0,1,0.146,7,22,816,1644,0,0,0,5,0
54da5755fdf99b2ae8ab221c,27,other,1,1,57,Ambigous_right,1,90,1,20,left,right,right,1,0,1,0.111,7,22,816,1644,0,0,0,5,0
54da5755fdf99b2ae8ab221c,27,other,1,1,63,Ambigous_right,1,90,1,20,left,right,left,0,-19,0,0.18600000000000005,7,22,816,1644,1,1,0,5,0
54da5755fdf99b2ae8ab221c,27,other,1,1,70,Ambigous_right,1,90,1,20,left,right,left,0,-19,0,0.23,7,22,816,1644,1,1,0,5,0
54da5755fdf99b2ae8ab221c,27,other,1,1,73,Ambigous_right,1,90,0,0,left,right,left,20,1,0,0.138,7,22,816,1644,1,1,0,5,0
54da5755fdf99b2ae8ab221c,27,other,1,1,92,Ambigous_right,1,90,1,20,left,right,right,1,0,1,0.136,7,22,816,1644,0,0,0,5,0
54da5755fdf99b2ae8ab221c,27,other,1,1,93,Ambigous_right,1,90,1,20,left,right,right,1,0,1,0.129,7,22,816,1644,0,0,0,5,0
54da5755fdf99b2ae8ab221c,27,other,1,2,20,Ambigous_right,1,90,1,20,left,right,left,0,-19,0,0.12,15,22,828,1644,1,0,1,0,12
54da5755fdf99b2ae8ab221c,27,other,1,2,21,Ambigous_right,1,90,1,20,left,right,right,1,0,1,0.123,15,22,828,1644,0,0,0,0,12
54da5755fdf99b2ae8ab221c,27,other,1,2,29,Ambigous_right,1,90,1,20,left,right,left,0,-19,0,0.127,15,22,828,1644,1,0,1,0,12
54da5755fdf99b2ae8ab221c,27,other,1,2,32,Ambigous_right,1,90,1,20,left,right,left,0,-19,0,0.182,15,22,828,1644,1,0,1,0,12
54da5755fdf99b2ae8ab221c,27,other,1,2,34,Ambigous_right,1,90,0,0,left,right,left,20,1,0,0.119,15,22,828,1644,1,0,1,0,12
54da5755fdf99b2ae8ab221c,27,other,1,2,40,Ambigous_right,1,90,1,20,left,right,left,0,-19,0,0.117,15,22,828,1644,1,0,1,0,12
54da5755fdf99b2ae8ab221c,27,other,1,2,44,Ambigous_right,1,90,0,0,left,right,left,20,1,0,0.128,15,22,828,1644,1,0,1,0,12
54da5755fdf99b2ae8ab221c,27,other,1,2,45,Ambigous_right,1,90,1,20,left,right,right,1,0,1,0.16,15,22,828,1644,0,0,0,0,12
54da5755fdf99b2ae8ab221c,27,other,1,2,50,Ambigous_right,1,90,1,20,left,right,right,1,0,1,0.099,15,22,828,1644,0,0,0,0,12
54da5755fdf99b2ae8ab221c,27,other,1,2,51,Ambigous_right,1,90,1,20,left,right,right,1,0,1,0.132,15,22,828,1644,0,0,0,0,12
54da5755fdf99b2ae8ab221c,27,other,1,2,58,Ambigous_right,1,90,1,20,left,right,right,1,0,1,0.109,15,22,828,1644,0,0,0,0,12
54da5755fdf99b2ae8ab221c,27,other,1,2,59,Ambigous_right,1,90,1,20,left,right,right,1,0,1,0.214,15,22,828,1644,0,0,0,0,12
54da5755fdf99b2ae8ab221c,27,other,1,2,61,Ambigous_right,1,90,1,20,left,right,right,1,0,1,0.13699999999999998,15,22,828,1644,0,0,0,0,12
54da5755fdf99b2ae8ab221c,27,other,1,2,62,Ambigous_right,1,90,1,20,left,right,left,0,-19,0,0.239,15,22,828,1644,1,0,1,0,12
54da5755fdf99b2ae8ab221c,27,other,1,2,67,Ambigous_right,1,90,1,20,left,right,right,1,0,1,0.25,15,22,828,1644,0,0,0,0,12
54da5755fdf99b2ae8ab221c,27,other,1,2,70,Ambigous_right,1,90,1,20,left,right,left,0,-19,0,0.188,15,22,828,1644,1,0,1,0,12
54da5755fdf99b2ae8ab221c,27,other,1,2,71,Ambigous_right,1,90,1,20,left,right,left,0,-19,0,0.175,15,22,828,1644,1,0,1,0,12
54da5755fdf99b2ae8ab221c,27,other,1,2,75,Ambigous_right,1,90,1,20,left,right,left,0,-19,0,0.106,15,22,828,1644,1,0,1,0,12
54da5755fdf99b2ae8ab221c,27,other,1,2,80,Ambigous_right,1,90,1,20,left,right,right,1,0,1,0.142,15,22,828,1644,0,0,0,0,12
54da5755fdf99b2ae8ab221c,27,other,1,2,83,Ambigous_right,1,90,1,20,left,right,right,1,0,1,0.11,15,22,828,1644,0,0,0,0,12
54da5755fdf99b2ae8ab221c,27,other,1,2,87,Ambigous_right,1,90,1,20,left,right,left,0,-19,0,0.117,15,22,828,1644,1,0,1,0,12
54da5755fdf99b2ae8ab221c,27,other,1,2,89,Ambigous_right,1,90,1,20,left,right,right,1,0,1,0.17,15,22,828,1644,0,0,0,0,12
54da5755fdf99b2ae8ab221c,27,other,1,2,93,Ambigous_right,1,90,1,20,left,right,left,0,-19,0,0.132,15,22,828,1644,1,0,1,0,12
54da5755fdf99b2ae8ab221c,27,other,1,2,95,Ambigous_right,1,90,0,0,left,right,right,1,20,1,0.21600000000000005,15,22,828,1644,0,0,0,0,12
54da5755fdf99b2ae8ab221c,27,other,1,2,99,Ambigous_right,1,90,1,20,left,right,right,1,0,1,0.301,15,22,828,1644,0,0,0,0,12
5806b9d1084b750001dbcde0,54,female,1,1,5,Ambigous_left,2,10,0,0,right,left,right,20,1,0,0.38,23,42,700,1940,1,1,0,14,0
5806b9d1084b750001dbcde0,54,female,1,1,6,Ambigous_left,2,10,0,0,right,left,left,1,20,1,0.56,23,42,700,1940,0,0,0,14,0
5806b9d1084b750001dbcde0,54,female,1,1,8,Ambigous_left,2,10,0,0,right,left,right,20,1,0,0.268,23,42,700,1940,1,1,0,14,0
5806b9d1084b750001dbcde0,54,female,1,1,9,Ambigous_left,2,10,0,0,right,left,left,1,20,1,0.287,23,42,700,1940,0,0,0,14,0
5806b9d1084b750001dbcde0,54,female,1,1,15,Ambigous_left,2,10,0,0,right,left,left,1,20,1,0.495,23,42,700,1940,0,0,0,14,0
5806b9d1084b750001dbcde0,54,female,1,1,21,Ambigous_left,2,10,0,0,right,left,left,1,20,1,0.605,23,42,700,1940,0,0,0,14,0
5806b9d1084b750001dbcde0,54,female,1,1,22,Ambigous_left,2,10,0,0,right,left,left,1,20,1,0.248,23,42,700,1940,0,0,0,14,0
5806b9d1084b750001dbcde0,54,female,1,1,33,Ambigous_left,2,10,0,0,right,left,right,20,1,0,0.395,23,42,700,1940,1,1,0,14,0
5806b9d1084b750001dbcde0,54,female,1,1,36,Ambigous_left,2,10,0,0,right,left,right,20,1,0,0.403,23,42,700,1940,1,1,0,14,0
5806b9d1084b750001dbcde0,54,female,1,1,37,Ambigous_left,2,10,0,0,right,left,left,1,20,1,0.259,23,42,700,1940,0,0,0,14,0
5806b9d1084b750001dbcde0,54,female,1,1,40,Ambigous_left,2,10,0,0,right,left,right,20,1,0,0.318,23,42,700,1940,1,1,0,14,0
5806b9d1084b750001dbcde0,54,female,1,1,42,Ambigous_left,2,10,0,0,right,left,right,20,1,0,0.315,23,42,700,1940,1,1,0,14,0
5806b9d1084b750001dbcde0,54,female,1,1,46,Ambigous_left,2,10,0,0,right,left,left,1,20,1,0.35100000000000003,23,42,700,1940,0,0,0,14,0
5806b9d1084b750001dbcde0,54,female,1,1,49,Ambigous_left,2,10,0,0,right,left,right,20,1,0,0.457,23,42,700,1940,1,1,0,14,0
5806b9d1084b750001dbcde0,54,female,1,1,51,Ambigous_left,2,10,0,0,right,left,right,20,1,0,0.212,23,42,700,1940,1,1,0,14,0
5806b9d1084b750001dbcde0,54,female,1,1,54,Ambigous_left,2,10,1,180,right,left,left,1,-160,1,0.224,23,42,700,1940,0,0,0,14,0
5806b9d1084b750001dbcde0,54,female,1,1,55,Ambigous_left,2,10,0,0,right,left,right,20,1,0,0.316,23,42,700,1940,1,1,0,14,0
5806b9d1084b750001dbcde0,54,female,1,1,56,Ambigous_left,2,10,0,0,right,left,left,1,20,1,0.254,23,42,700,1940,0,0,0,14,0
5806b9d1084b750001dbcde0,54,female,1,1,61,Ambigous_left,2,10,0,0,right,left,right,20,1,0,0.335,23,42,700,1940,1,1,0,14,0
5806b9d1084b750001dbcde0,54,female,1,1,63,Ambigous_left,2,10,1,180,right,left,right,-160,-179,0,0.236,23,42,700,1940,1,1,0,14,0
5806b9d1084b750001dbcde0,54,female,1,1,65,Ambigous_left,2,10,0,0,right,left,right,20,1,0,0.484,23,42,700,1940,1,1,0,14,0
5806b9d1084b750001dbcde0,54,female,1,1,76,Ambigous_left,2,10,1,180,right,left,right,-160,-179,0,0.245,23,42,700,1940,1,1,0,14,0
5806b9d1084b750001dbcde0,54,female,1,1,87,Ambigous_left,2,10,1,180,right,left,left,1,-160,1,0.516,23,42,700,1940,0,0,0,14,0
5806b9d1084b750001dbcde0,54,female,1,1,90,Ambigous_left,2,10,0,0,right,left,right,20,1,0,0.197,23,42,700,1940,1,1,0,14,0
5806b9d1084b750001dbcde0,54,female,1,1,100,Ambigous_left,2,10,0,0,right,left,left,1,20,1,0.315,23,42,700,1940,0,0,0,14,0
5806b9d1084b750001dbcde0,54,female,1,2,3,Ambigous_left,2,10,0,0,right,left,right,20,1,0,0.236,19,42,1240,1940,1,0,1,0,17
5806b9d1084b750001dbcde0,54,female,1,2,11,Ambigous_left,2,10,0,0,right,left,left,1,20,1,0.254,19,42,1240,1940,0,0,0,0,17
5806b9d1084b750001dbcde0,54,female,1,2,13,Ambigous_left,2,10,0,0,right,left,left,1,20,1,0.43,19,42,1240,1940,0,0,0,0,17
5806b9d1084b750001dbcde0,54,female,1,2,15,Ambigous_left,2,10,0,0,right,left,right,20,1,0,0.2,19,42,1240,1940,1,0,1,0,17
5806b9d1084b750001dbcde0,54,female,1,2,22,Ambigous_left,2,10,0,0,right,left,right,20,1,0,0.335,19,42,1240,1940,1,0,1,0,17
5806b9d1084b750001dbcde0,54,female,1,2,28,Ambigous_left,2,10,0,0,right,left,right,20,1,0,0.502,19,42,1240,1940,1,0,1,0,17
5806b9d1084b750001dbcde0,54,female,1,2,33,Ambigous_left,2,10,0,0,right,left,right,20,1,0,0.368,19,42,1240,1940,1,0,1,0,17
5806b9d1084b750001dbcde0,54,female,1,2,35,Ambigous_left,2,10,0,0,right,left,right,20,1,0,0.555,19,42,1240,1940,1,0,1,0,17
5806b9d1084b750001dbcde0,54,female,1,2,37,Ambigous_left,2,10,0,0,right,left,right,20,1,0,0.235,19,42,1240,1940,1,0,1,0,17
5806b9d1084b750001dbcde0,54,female,1,2,43,Ambigous_left,2,10,0,0,right,left,right,20,1,0,0.239,19,42,1240,1940,1,0,1,0,17
5806b9d1084b750001dbcde0,54,female,1,2,45,Ambigous_left,2,10,0,0,right,left,left,1,20,1,0.328,19,42,1240,1940,0,0,0,0,17
5806b9d1084b750001dbcde0,54,female,1,2,60,Ambigous_left,2,10,0,0,right,left,right,20,1,0,0.447,19,42,1240,1940,1,0,1,0,17
5806b9d1084b750001dbcde0,54,female,1,2,65,Ambigous_left,2,10,0,0,right,left,left,1,20,1,0.515,19,42,1240,1940,0,0,0,0,17
5806b9d1084b750001dbcde0,54,female,1,2,72,Ambigous_left,2,10,0,0,right,left,right,20,1,0,0.504,19,42,1240,1940,1,0,1,0,17
5806b9d1084b750001dbcde0,54,female,1,2,75,Ambigous_left,2,10,0,0,right,left,left,1,20,1,0.234,19,42,1240,1940,0,0,0,0,17
5806b9d1084b750001dbcde0,54,female,1,2,77,Ambigous_left,2,10,0,0,right,left,left,1,20,1,0.431,19,42,1240,1940,0,0,0,0,17
5806b9d1084b750001dbcde0,54,female,1,2,79,Ambigous_left,2,10,0,0,right,left,left,1,20,1,0.26,19,42,1240,1940,0,0,0,0,17
5806b9d1084b750001dbcde0,54,female,1,2,85,Ambigous_left,2,10,0,0,right,left,right,20,1,0,0.203,19,42,1240,1940,1,0,1,0,17
5806b9d1084b750001dbcde0,54,female,1,2,88,Ambigous_left,2,10,0,0,right,left,right,20,1,0,0.237,19,42,1240,1940,1,0,1,0,17
5806b9d1084b750001dbcde0,54,female,1,2,92,Ambigous_left,2,10,0,0,right,left,right,20,1,0,0.245,19,42,1240,1940,1,0,1,0,17
5806b9d1084b750001dbcde0,54,female,1,2,93,Ambigous_left,2,10,0,0,right,left,left,1,20,1,0.308,19,42,1240,1940,0,0,0,0,17
5806b9d1084b750001dbcde0,54,female,1,2,96,Ambigous_left,2,10,0,0,right,left,right,20,1,0,0.338,19,42,1240,1940,1,0,1,0,17
5806b9d1084b750001dbcde0,54,female,1,2,97,Ambigous_left,2,10,0,0,right,left,right,20,1,0,0.366,19,42,1240,1940,1,0,1,0,17
5806b9d1084b750001dbcde0,54,female,1,2,98,Ambigous_left,2,10,0,0,right,left,right,20,1,0,0.561,19,42,1240,1940,1,0,1,0,17
5806b9d1084b750001dbcde0,54,female,1,2,99,Ambigous_left,2,10,0,0,right,left,right,20,1,0,0.232,19,42,1240,1940,1,0,1,0,17
5ec22961a5533967a888db87,46,male,1,1,3,Ambigous_left,3,0,0,0,right,left,right,2,1,0,0.331,9,25,150,307,1,1,0,5,0
5ec22961a5533967a888db87,46,male,1,1,4,Ambigous_left,3,0,0,0,right,left,left,1,2,1,0.26,9,25,150,307,0,0,0,5,0
5ec22961a5533967a888db87,46,male,1,1,8,Ambigous_left,3,0,0,0,right,left,right,2,1,0,0.311,9,25,150,307,1,1,0,5,0
5ec22961a5533967a888db87,46,male,1,1,10,Ambigous_left,3,0,0,0,right,left,left,1,2,1,0.195,9,25,150,307,0,0,0,5,0
5ec22961a5533967a888db87,46,male,1,1,12,Ambigous_left,3,0,0,0,right,left,left,1,2,1,0.202,9,25,150,307,0,0,0,5,0
5ec22961a5533967a888db87,46,male,1,1,13,Ambigous_left,3,0,0,0,right,left,right,2,1,0,0.265,9,25,150,307,1,1,0,5,0
5ec22961a5533967a888db87,46,male,1,1,14,Ambigous_left,3,0,0,0,right,left,left,1,2,1,0.221,9,25,150,307,0,0,0,5,0
5ec22961a5533967a888db87,46,male,1,1,16,Ambigous_left,3,0,0,0,right,left,left,1,2,1,0.267,9,25,150,307,0,0,0,5,0
5ec22961a5533967a888db87,46,male,1,1,21,Ambigous_left,3,0,0,0,right,left,left,1,2,1,0.177,9,25,150,307,0,0,0,5,0
5ec22961a5533967a888db87,46,male,1,1,24,Ambigous_left,3,0,0,0,right,left,left,1,2,1,0.206,9,25,150,307,0,0,0,5,0
5ec22961a5533967a888db87,46,male,1,1,28,Ambigous_left,3,0,0,0,right,left,left,1,2,1,0.268,9,25,150,307,0,0,0,5,0
5ec22961a5533967a888db87,46,male,1,1,29,Ambigous_left,3,0,0,0,right,left,left,1,2,1,0.163,9,25,150,307,0,0,0,5,0
5ec22961a5533967a888db87,46,male,1,1,34,Ambigous_left,3,0,0,0,right,left,left,1,2,1,0.175,9,25,150,307,0,0,0,5,0
5ec22961a5533967a888db87,46,male,1,1,40,Ambigous_left,3,0,0,0,right,left,left,1,2,1,0.13699999999999998,9,25,150,307,0,0,0,5,0
5ec22961a5533967a888db87,46,male,1,1,44,Ambigous_left,3,0,0,0,right,left,left,1,2,1,0.166,9,25,150,307,0,0,0,5,0
5ec22961a5533967a888db87,46,male,1,1,45,Ambigous_left,3,0,0,0,right,left,left,1,2,1,0.14800000000000002,9,25,150,307,0,0,0,5,0
5ec22961a5533967a888db87,46,male,1,1,52,Ambigous_left,3,0,0,0,right,left,left,1,2,1,0.312,9,25,150,307,0,0,0,5,0
5ec22961a5533967a888db87,46,male,1,1,55,Ambigous_left,3,0,0,0,right,left,left,1,2,1,0.175,9,25,150,307,0,0,0,5,0
5ec22961a5533967a888db87,46,male,1,1,63,Ambigous_left,3,0,0,0,right,left,left,1,2,1,0.181,9,25,150,307,0,0,0,5,0
5ec22961a5533967a888db87,46,male,1,1,81,Ambigous_left,3,0,0,0,right,left,right,2,1,0,0.14800000000000002,9,25,150,307,1,1,0,5,0
5ec22961a5533967a888db87,46,male,1,1,85,Ambigous_left,3,0,0,0,right,left,left,1,2,1,0.171,9,25,150,307,0,0,0,5,0
5ec22961a5533967a888db87,46,male,1,1,91,Ambigous_left,3,0,0,0,right,left,left,1,2,1,0.223,9,25,150,307,0,0,0,5,0
5ec22961a5533967a888db87,46,male,1,1,93,Ambigous_left,3,0,0,0,right,left,right,2,1,0,0.223,9,25,150,307,1,1,0,5,0
5ec22961a5533967a888db87,46,male,1,1,95,Ambigous_left,3,0,0,0,right,left,left,1,2,1,0.35,9,25,150,307,0,0,0,5,0
5ec22961a5533967a888db87,46,male,1,1,97,Ambigous_left,3,0,0,0,right,left,left,1,2,1,0.159,9,25,150,307,0,0,0,5,0
5ec22961a5533967a888db87,46,male,1,2,3,Ambigous_left,3,0,0,0,right,left,left,1,2,1,0.224,16,25,157,307,0,0,0,0,14
5ec22961a5533967a888db87,46,male,1,2,6,Ambigous_left,3,0,0,0,right,left,right,2,1,0,0.281,16,25,157,307,1,0,1,0,14
5ec22961a5533967a888db87,46,male,1,2,9,Ambigous_left,3,0,0,0,right,left,right,2,1,0,0.197,16,25,157,307,1,0,1,0,14
5ec22961a5533967a888db87,46,male,1,2,10,Ambigous_left,3,0,0,0,right,left,left,1,2,1,0.308,16,25,157,307,0,0,0,0,14
5ec22961a5533967a888db87,46,male,1,2,14,Ambigous_left,3,0,0,0,right,left,right,2,1,0,0.281,16,25,157,307,1,0,1,0,14
5ec22961a5533967a888db87,46,male,1,2,16,Ambigous_left,3,0,0,0,right,left,right,2,1,0,0.236,16,25,157,307,1,0,1,0,14
5ec22961a5533967a888db87,46,male,1,2,20,Ambigous_left,3,0,0,0,right,left,left,1,2,1,0.184,16,25,157,307,0,0,0,0,14
5ec22961a5533967a888db87,46,male,1,2,24,Ambigous_left,3,0,0,0,right,left,right,2,1,0,0.358,16,25,157,307,1,0,1,0,14
5ec22961a5533967a888db87,46,male,1,2,25,Ambigous_left,3,0,0,0,right,left,right,2,1,0,0.145,16,25,157,307,1,0,1,0,14
5ec22961a5533967a888db87,46,male,1,2,31,Ambigous_left,3,0,0,0,right,left,right,2,1,0,0.179,16,25,157,307,1,0,1,0,14
5ec22961a5533967a888db87,46,male,1,2,35,Ambigous_left,3,0,0,0,right,left,left,1,2,1,0.18,16,25,157,307,0,0,0,0,14
5ec22961a5533967a888db87,46,male,1,2,36,Ambigous_left,3,0,0,0,right,left,left,1,2,1,0.138,16,25,157,307,0,0,0,0,14
5ec22961a5533967a888db87,46,male,1,2,49,Ambigous_left,3,0,0,0,right,left,right,2,1,0,0.232,16,25,157,307,1,0,1,0,14
5ec22961a5533967a888db87,46,male,1,2,50,Ambigous_left,3,0,0,0,right,left,left,1,2,1,0.207,16,25,157,307,0,0,0,0,14
5ec22961a5533967a888db87,46,male,1,2,52,Ambigous_left,3,0,0,0,right,left,left,1,2,1,0.129,16,25,157,307,0,0,0,0,14
5ec22961a5533967a888db87,46,male,1,2,61,Ambigous_left,3,0,0,0,right,left,right,2,1,0,0.173,16,25,157,307,1,0,1,0,14
5ec22961a5533967a888db87,46,male,1,2,62,Ambigous_left,3,0,0,0,right,left,left,1,2,1,0.336,16,25,157,307,0,0,0,0,14
5ec22961a5533967a888db87,46,male,1,2,68,Ambigous_left,3,0,0,0,right,left,right,2,1,0,0.136,16,25,157,307,1,0,1,0,14
5ec22961a5533967a888db87,46,male,1,2,72,Ambigous_left,3,0,0,0,right,left,left,1,2,1,0.227,16,25,157,307,0,0,0,0,14
5ec22961a5533967a888db87,46,male,1,2,74,Ambigous_left,3,0,0,0,right,left,left,1,2,1,0.111,16,25,157,307,0,0,0,0,14
5ec22961a5533967a888db87,46,male,1,2,80,Ambigous_left,3,0,0,0,right,left,right,2,1,0,0.131,16,25,157,307,1,0,1,0,14
5ec22961a5533967a888db87,46,male,1,2,81,Ambigous_left,3,0,0,0,right,left,right,2,1,0,0.13,16,25,157,307,1,0,1,0,14
5ec22961a5533967a888db87,46,male,1,2,89,Ambigous_left,3,0,0,0,right,left,right,2,1,0,0.13699999999999998,16,25,157,307,1,0,1,0,14
5ec22961a5533967a888db87,46,male,1,2,94,Ambigous_left,3,0,0,0,right,left,left,1,2,1,0.246,16,25,157,307,0,0,0,0,14
5ec22961a5533967a888db87,46,male,1,2,95,Ambigous_left,3,0,0,0,right,left,right,2,1,0,0.156,16,25,157,307,1,0,1,0,14
