user_id,age,gender,attention,block_number,trial_number,trial_type,conditions,p_inspection,inspection,fine_size,profitable_side,true_side,choice,trial_payoff,alternative_payoff,choice_correct,rt_choice,block_errors,final_errors,block_payoff,final_payoff,error
5af478d820299700016d0748,30,female,1,1,1,Clear_not_profit_side,1,90,1,20,right,left,left,1,0,1,0.583,16,24,559,1240,0
5af478d820299700016d0748,30,female,1,1,2,Clear_not_profit_side,1,90,0,0,right,left,left,1,20,1,0.36700000000000005,16,24,559,1240,0
5af478d820299700016d0748,30,female,1,1,3,Clear_not_profit_side,1,90,1,20,right,left,left,1,0,1,0.40700000000000003,16,24,559,1240,0
5af478d820299700016d0748,30,female,1,1,5,Clear_not_profit_side,1,90,1,20,right,left,left,1,0,1,0.324,16,24,559,1240,0
5af478d820299700016d0748,30,female,1,1,13,Clear_not_profit_side,1,90,1,20,right,left,left,1,0,1,0.29100000000000004,16,24,559,1240,0
5af478d820299700016d0748,30,female,1,1,14,Clear_not_profit_side,1,90,1,20,right,left,left,1,0,1,0.311,16,24,559,1240,0
5af478d820299700016d0748,30,female,1,1,16,Clear_not_profit_side,1,90,1,20,right,left,left,1,0,1,0.264,16,24,559,1240,0
5af478d820299700016d0748,30,female,1,1,18,Clear_not_profit_side,1,90,1,20,right,left,left,1,0,1,0.253,16,24,559,1240,0
5af478d820299700016d0748,30,female,1,1,23,Clear_not_profit_side,1,90,1,20,right,left,left,1,0,1,0.324,16,24,559,1240,0
5af478d820299700016d0748,30,female,1,1,24,Clear_not_profit_side,1,90,1,20,right,left,left,1,0,1,0.3,16,24,559,1240,0
5af478d820299700016d0748,30,female,1,1,26,Clear_not_profit_side,1,90,1,20,right,left,left,1,0,1,0.55,16,24,559,1240,0
5af478d820299700016d0748,30,female,1,1,27,Clear_not_profit_side,1,90,1,20,right,left,left,1,0,1,0.293,16,24,559,1240,0
5af478d820299700016d0748,30,female,1,1,29,Clear_not_profit_side,1,90,1,20,right,left,left,1,0,1,0.258,16,24,559,1240,0
5af478d820299700016d0748,30,female,1,1,31,Clear_not_profit_side,1,90,1,20,right,left,left,1,0,1,0.263,16,24,559,1240,0
5af478d820299700016d0748,30,female,1,1,38,Clear_not_profit_side,1,90,1,20,right,left,left,1,0,1,0.38299999999999995,16,24,559,1240,0
5af478d820299700016d0748,30,female,1,1,39,Clear_not_profit_side,1,90,1,20,right,left,left,1,0,1,0.17800000000000002,16,24,559,1240,0
5af478d820299700016d0748,30,female,1,1,46,Clear_not_profit_side,1,90,1,20,right,left,left,1,0,1,0.18,16,24,559,1240,0
5af478d820299700016d0748,30,female,1,1,48,Clear_not_profit_side,1,90,1,20,right,left,left,1,0,1,0.25,16,24,559,1240,0
5af478d820299700016d0748,30,female,1,1,49,Clear_not_profit_side,1,90,1,20,right,left,left,1,0,1,0.21100000000000002,16,24,559,1240,0
5af478d820299700016d0748,30,female,1,1,58,Clear_not_profit_side,1,90,1,20,right,left,left,1,0,1,0.28600000000000003,16,24,559,1240,0
5af478d820299700016d0748,30,female,1,1,62,Clear_not_profit_side,1,90,0,0,right,left,left,1,20,1,0.28800000000000003,16,24,559,1240,0
5af478d820299700016d0748,30,female,1,1,64,Clear_not_profit_side,1,90,0,0,right,left,left,1,20,1,0.217,16,24,559,1240,0
5af478d820299700016d0748,30,female,1,1,65,Clear_not_profit_side,1,90,1,20,right,left,left,1,0,1,0.249,16,24,559,1240,0
5af478d820299700016d0748,30,female,1,1,68,Clear_not_profit_side,1,90,1,20,right,left,left,1,0,1,0.20600000000000002,16,24,559,1240,0
5af478d820299700016d0748,30,female,1,1,69,Clear_not_profit_side,1,90,1,20,right,left,left,1,0,1,0.261,16,24,559,1240,0
5af478d820299700016d0748,30,female,1,1,77,Clear_not_profit_side,1,90,1,20,right,left,left,1,0,1,0.247,16,24,559,1240,0
5af478d820299700016d0748,30,female,1,1,79,Clear_not_profit_side,1,90,1,20,right,left,left,1,0,1,0.302,16,24,559,1240,0
5af478d820299700016d0748,30,female,1,1,80,Clear_not_profit_side,1,90,1,20,right,left,left,1,0,1,0.249,16,24,559,1240,0
5af478d820299700016d0748,30,female,1,1,82,Clear_not_profit_side,1,90,1,20,right,left,left,1,0,1,0.265,16,24,559,1240,0
5af478d820299700016d0748,30,female,1,1,84,Clear_not_profit_side,1,90,1,20,right,left,left,1,0,1,0.22,16,24,559,1240,0
5af478d820299700016d0748,30,female,1,1,85,Clear_not_profit_side,1,90,1,20,right,left,right,0,-19,0,0.341,16,24,559,1240,1
5af478d820299700016d0748,30,female,1,1,87,Clear_not_profit_side,1,90,1,20,right,left,left,1,0,1,0.239,16,24,559,1240,0
5af478d820299700016d0748,30,female,1,1,91,Clear_not_profit_side,1,90,1,20,right,left,left,1,0,1,0.32,16,24,559,1240,0
5af478d820299700016d0748,30,female,1,1,95,Clear_not_profit_side,1,90,1,20,right,left,left,1,0,1,0.303,16,24,559,1240,0
5af478d820299700016d0748,30,female,1,2,1,Clear_not_profit_side,1,90,1,20,right,left,left,1,0,1,0.225,8,24,681,1240,0
5af478d820299700016d0748,30,female,1,2,4,Clear_not_profit_side,1,90,1,20,right,left,left,1,0,1,0.237,8,24,681,1240,0
5af478d820299700016d0748,30,female,1,2,5,Clear_not_profit_side,1,90,1,20,right,left,left,1,0,1,0.264,8,24,681,1240,0
5af478d820299700016d0748,30,female,1,2,8,Clear_not_profit_side,1,90,1,20,right,left,left,1,0,1,0.249,8,24,681,1240,0
5af478d820299700016d0748,30,female,1,2,9,Clear_not_profit_side,1,90,1,20,right,left,left,1,0,1,0.239,8,24,681,1240,0
5af478d820299700016d0748,30,female,1,2,10,Clear_not_profit_side,1,90,1,20,right,left,left,1,0,1,0.215,8,24,681,1240,0
5af478d820299700016d0748,30,female,1,2,14,Clear_not_profit_side,1,90,1,20,right,left,left,1,0,1,0.317,8,24,681,1240,0
5af478d820299700016d0748,30,female,1,2,15,Clear_not_profit_side,1,90,1,20,right,left,left,1,0,1,0.24100000000000002,8,24,681,1240,0
5af478d820299700016d0748,30,female,1,2,16,Clear_not_profit_side,1,90,1,20,right,left,left,1,0,1,0.27899999999999997,8,24,681,1240,0
5af478d820299700016d0748,30,female,1,2,17,Clear_not_profit_side,1,90,1,20,right,left,left,1,0,1,0.235,8,24,681,1240,0
5af478d820299700016d0748,30,female,1,2,18,Clear_not_profit_side,1,90,1,20,right,left,left,1,0,1,0.228,8,24,681,1240,0
5af478d820299700016d0748,30,female,1,2,20,Clear_not_profit_side,1,90,1,20,right,left,left,1,0,1,0.22899999999999998,8,24,681,1240,0
5af478d820299700016d0748,30,female,1,2,24,Clear_not_profit_side,1,90,1,20,right,left,left,1,0,1,0.22899999999999998,8,24,681,1240,0
5af478d820299700016d0748,30,female,1,2,29,Clear_not_profit_side,1,90,1,20,right,left,left,1,0,1,0.222,8,24,681,1240,0
5af478d820299700016d0748,30,female,1,2,37,Clear_not_profit_side,1,90,1,20,right,left,left,1,0,1,0.27399999999999997,8,24,681,1240,0
5af478d820299700016d0748,30,female,1,2,39,Clear_not_profit_side,1,90,1,20,right,left,left,1,0,1,0.359,8,24,681,1240,0
5af478d820299700016d0748,30,female,1,2,40,Clear_not_profit_side,1,90,1,20,right,left,left,1,0,1,0.23600000000000002,8,24,681,1240,0
5af478d820299700016d0748,30,female,1,2,45,Clear_not_profit_side,1,90,1,20,right,left,left,1,0,1,0.22699999999999998,8,24,681,1240,0
5af478d820299700016d0748,30,female,1,2,51,Clear_not_profit_side,1,90,1,20,right,left,left,1,0,1,0.226,8,24,681,1240,0
5af478d820299700016d0748,30,female,1,2,55,Clear_not_profit_side,1,90,0,0,right,left,left,1,20,1,0.297,8,24,681,1240,0
5af478d820299700016d0748,30,female,1,2,57,Clear_not_profit_side,1,90,1,20,right,left,left,1,0,1,0.222,8,24,681,1240,0
5af478d820299700016d0748,30,female,1,2,58,Clear_not_profit_side,1,90,0,0,right,left,left,1,20,1,0.265,8,24,681,1240,0
5af478d820299700016d0748,30,female,1,2,60,Clear_not_profit_side,1,90,1,20,right,left,left,1,0,1,0.218,8,24,681,1240,0
5af478d820299700016d0748,30,female,1,2,61,Clear_not_profit_side,1,90,1,20,right,left,left,1,0,1,0.23199999999999998,8,24,681,1240,0
5af478d820299700016d0748,30,female,1,2,62,Clear_not_profit_side,1,90,1,20,right,left,left,1,0,1,0.22,8,24,681,1240,0
5af478d820299700016d0748,30,female,1,2,66,Clear_not_profit_side,1,90,1,20,right,left,left,1,0,1,0.226,8,24,681,1240,0
5af478d820299700016d0748,30,female,1,2,67,Clear_not_profit_side,1,90,1,20,right,left,left,1,0,1,0.257,8,24,681,1240,0
5af478d820299700016d0748,30,female,1,2,78,Clear_not_profit_side,1,90,1,20,right,left,left,1,0,1,0.263,8,24,681,1240,0
5af478d820299700016d0748,30,female,1,2,81,Clear_not_profit_side,1,90,1,20,right,left,left,1,0,1,0.22399999999999998,8,24,681,1240,0
5af478d820299700016d0748,30,female,1,2,82,Clear_not_profit_side,1,90,1,20,right,left,left,1,0,1,0.239,8,24,681,1240,0
5af478d820299700016d0748,30,female,1,2,83,Clear_not_profit_side,1,90,1,20,right,left,left,1,0,1,0.27699999999999997,8,24,681,1240,0
5af478d820299700016d0748,30,female,1,2,90,Clear_not_profit_side,1,90,1,20,right,left,left,1,0,1,0.225,8,24,681,1240,0
5af478d820299700016d0748,30,female,1,2,94,Clear_not_profit_side,1,90,1,20,right,left,left,1,0,1,0.212,8,24,681,1240,0
5af478d820299700016d0748,30,female,1,2,95,Clear_not_profit_side,1,90,1,20,right,left,left,1,0,1,0.22899999999999998,8,24,681,1240,0
5b7de8361e7bc100011dc574,56,female,1,1,7,Clear_not_profit_side,3,0,0,0,right,left,left,1,2,1,0.062,6,15,139,283,0
5b7de8361e7bc100011dc574,56,female,1,1,10,Clear_not_profit_side,3,0,0,0,right,left,left,1,2,1,0.059000000000000004,6,15,139,283,0
5b7de8361e7bc100011dc574,56,female,1,1,20,Clear_not_profit_side,3,0,0,0,right,left,left,1,2,1,0.051,6,15,139,283,0
5b7de8361e7bc100011dc574,56,female,1,1,23,Clear_not_profit_side,3,0,0,0,right,left,left,1,2,1,0.046,6,15,139,283,0
5b7de8361e7bc100011dc574,56,female,1,1,25,Clear_not_profit_side,3,0,0,0,right,left,left,1,2,1,0.057,6,15,139,283,0
5b7de8361e7bc100011dc574,56,female,1,1,26,Clear_not_profit_side,3,0,0,0,right,left,left,1,2,1,0.044000000000000004,6,15,139,283,0
5b7de8361e7bc100011dc574,56,female,1,1,27,Clear_not_profit_side,3,0,0,0,right,left,left,1,2,1,0.079,6,15,139,283,0
5b7de8361e7bc100011dc574,56,female,1,1,28,Clear_not_profit_side,3,0,0,0,right,left,left,1,2,1,0.052000000000000005,6,15,139,283,0
5b7de8361e7bc100011dc574,56,female,1,1,29,Clear_not_profit_side,3,0,0,0,right,left,left,1,2,1,0.071,6,15,139,283,0
5b7de8361e7bc100011dc574,56,female,1,1,33,Clear_not_profit_side,3,0,0,0,right,left,left,1,2,1,0.048,6,15,139,283,0
5b7de8361e7bc100011dc574,56,female,1,1,35,Clear_not_profit_side,3,0,0,0,right,left,left,1,2,1,0.055,6,15,139,283,0
5b7de8361e7bc100011dc574,56,female,1,1,38,Clear_not_profit_side,3,0,0,0,right,left,left,1,2,1,0.064,6,15,139,283,0
5b7de8361e7bc100011dc574,56,female,1,1,40,Clear_not_profit_side,3,0,0,0,right,left,left,1,2,1,0.059000000000000004,6,15,139,283,0
5b7de8361e7bc100011dc574,56,female,1,1,46,Clear_not_profit_side,3,0,0,0,right,left,left,1,2,1,0.064,6,15,139,283,0
5b7de8361e7bc100011dc574,56,female,1,1,52,Clear_not_profit_side,3,0,0,0,right,left,left,1,2,1,0.06,6,15,139,283,0
5b7de8361e7bc100011dc574,56,female,1,1,53,Clear_not_profit_side,3,0,0,0,right,left,left,1,2,1,0.055,6,15,139,283,0
5b7de8361e7bc100011dc574,56,female,1,1,55,Clear_not_profit_side,3,0,0,0,right,left,left,1,2,1,0.043,6,15,139,283,0
5b7de8361e7bc100011dc574,56,female,1,1,57,Clear_not_profit_side,3,0,0,0,right,left,left,1,2,1,0.063,6,15,139,283,0
5b7de8361e7bc100011dc574,56,female,1,1,65,Clear_not_profit_side,3,0,0,0,right,left,left,1,2,1,0.059000000000000004,6,15,139,283,0
5b7de8361e7bc100011dc574,56,female,1,1,66,Clear_not_profit_side,3,0,0,0,right,left,left,1,2,1,0.061,6,15,139,283,0
5b7de8361e7bc100011dc574,56,female,1,1,69,Clear_not_profit_side,3,0,0,0,right,left,left,1,2,1,0.059000000000000004,6,15,139,283,0
5b7de8361e7bc100011dc574,56,female,1,1,70,Clear_not_profit_side,3,0,0,0,right,left,left,1,2,1,0.059000000000000004,6,15,139,283,0
5b7de8361e7bc100011dc574,56,female,1,1,71,Clear_not_profit_side,3,0,0,0,right,left,left,1,2,1,0.053,6,15,139,283,0
5b7de8361e7bc100011dc574,56,female,1,1,72,Clear_not_profit_side,3,0,0,0,right,left,left,1,2,1,0.045,6,15,139,283,0
5b7de8361e7bc100011dc574,56,female,1,1,73,Clear_not_profit_side,3,0,0,0,right,left,left,1,2,1,0.055999999999999994,6,15,139,283,0
5b7de8361e7bc100011dc574,56,female,1,1,76,Clear_not_profit_side,3,0,0,0,right,left,left,1,2,1,0.063,6,15,139,283,0
5b7de8361e7bc100011dc574,56,female,1,1,78,Clear_not_profit_side,3,0,0,0,right,left,left,1,2,1,0.052000000000000005,6,15,139,283,0
5b7de8361e7bc100011dc574,56,female,1,1,83,Clear_not_profit_side,3,0,0,0,right,left,left,1,2,1,0.053,6,15,139,283,0
5b7de8361e7bc100011dc574,56,female,1,1,85,Clear_not_profit_side,3,0,0,0,right,left,left,1,2,1,0.055999999999999994,6,15,139,283,0
5b7de8361e7bc100011dc574,56,female,1,1,92,Clear_not_profit_side,3,0,0,0,right,left,left,1,2,1,0.053,6,15,139,283,0
5b7de8361e7bc100011dc574,56,female,1,1,96,Clear_not_profit_side,3,0,0,0,right,left,left,1,2,1,0.055,6,15,139,283,0
5b7de8361e7bc100011dc574,56,female,1,1,97,Clear_not_profit_side,3,0,0,0,right,left,left,1,2,1,0.046,6,15,139,283,0
5b7de8361e7bc100011dc574,56,female,1,1,98,Clear_not_profit_side,3,0,0,0,right,left,left,1,2,1,0.044000000000000004,6,15,139,283,0
5b7de8361e7bc100011dc574,56,female,1,1,100,Clear_not_profit_side,3,0,0,0,right,left,left,1,2,1,0.054000000000000006,6,15,139,283,0
5b7de8361e7bc100011dc574,56,female,1,2,2,Clear_not_profit_side,3,0,0,0,right,left,left,1,2,1,0.077,9,15,144,283,0
5b7de8361e7bc100011dc574,56,female,1,2,5,Clear_not_profit_side,3,0,0,0,right,left,left,1,2,1,0.053,9,15,144,283,0
5b7de8361e7bc100011dc574,56,female,1,2,11,Clear_not_profit_side,3,0,0,0,right,left,left,1,2,1,0.046,9,15,144,283,0
5b7de8361e7bc100011dc574,56,female,1,2,15,Clear_not_profit_side,3,0,0,0,right,left,left,1,2,1,0.049,9,15,144,283,0
5b7de8361e7bc100011dc574,56,female,1,2,18,Clear_not_profit_side,3,0,0,0,right,left,left,1,2,1,0.040999999999999995,9,15,144,283,0
5b7de8361e7bc100011dc574,56,female,1,2,20,Clear_not_profit_side,3,0,0,0,right,left,left,1,2,1,0.059000000000000004,9,15,144,283,0
5b7de8361e7bc100011dc574,56,female,1,2,25,Clear_not_profit_side,3,0,0,0,right,left,left,1,2,1,0.049,9,15,144,283,0
5b7de8361e7bc100011dc574,56,female,1,2,26,Clear_not_profit_side,3,0,0,0,right,left,left,1,2,1,0.057,9,15,144,283,0
5b7de8361e7bc100011dc574,56,female,1,2,34,Clear_not_profit_side,3,0,0,0,right,left,left,1,2,1,0.06,9,15,144,283,0
5b7de8361e7bc100011dc574,56,female,1,2,35,Clear_not_profit_side,3,0,0,0,right,left,left,1,2,1,0.055,9,15,144,283,0
5b7de8361e7bc100011dc574,56,female,1,2,39,Clear_not_profit_side,3,0,0,0,right,left,left,1,2,1,0.05,9,15,144,283,0
5b7de8361e7bc100011dc574,56,female,1,2,40,Clear_not_profit_side,3,0,0,0,right,left,left,1,2,1,0.05,9,15,144,283,0
5b7de8361e7bc100011dc574,56,female,1,2,45,Clear_not_profit_side,3,0,0,0,right,left,left,1,2,1,0.055,9,15,144,283,0
5b7de8361e7bc100011dc574,56,female,1,2,47,Clear_not_profit_side,3,0,0,0,right,left,left,1,2,1,0.045,9,15,144,283,0
5b7de8361e7bc100011dc574,56,female,1,2,54,Clear_not_profit_side,3,0,0,0,right,left,left,1,2,1,0.07,9,15,144,283,0
5b7de8361e7bc100011dc574,56,female,1,2,63,Clear_not_profit_side,3,0,0,0,right,left,left,1,2,1,0.033,9,15,144,283,0
5b7de8361e7bc100011dc574,56,female,1,2,64,Clear_not_profit_side,3,0,0,0,right,left,left,1,2,1,0.05,9,15,144,283,0
5b7de8361e7bc100011dc574,56,female,1,2,65,Clear_not_profit_side,3,0,0,0,right,left,left,1,2,1,0.06,9,15,144,283,0
5b7de8361e7bc100011dc574,56,female,1,2,67,Clear_not_profit_side,3,0,0,0,right,left,left,1,2,1,0.052000000000000005,9,15,144,283,0
5b7de8361e7bc100011dc574,56,female,1,2,72,Clear_not_profit_side,3,0,0,0,right,left,left,1,2,1,0.055999999999999994,9,15,144,283,0
5b7de8361e7bc100011dc574,56,female,1,2,73,Clear_not_profit_side,3,0,0,0,right,left,left,1,2,1,0.061,9,15,144,283,0
5b7de8361e7bc100011dc574,56,female,1,2,76,Clear_not_profit_side,3,0,0,0,right,left,left,1,2,1,0.04,9,15,144,283,0
5b7de8361e7bc100011dc574,56,female,1,2,77,Clear_not_profit_side,3,0,0,0,right,left,left,1,2,1,0.043,9,15,144,283,0
5b7de8361e7bc100011dc574,56,female,1,2,79,Clear_not_profit_side,3,0,0,0,right,left,left,1,2,1,0.049,9,15,144,283,0
5b7de8361e7bc100011dc574,56,female,1,2,84,Clear_not_profit_side,3,0,0,0,right,left,left,1,2,1,0.045,9,15,144,283,0
5b7de8361e7bc100011dc574,56,female,1,2,86,Clear_not_profit_side,3,0,0,0,right,left,left,1,2,1,0.052000000000000005,9,15,144,283,0
5b7de8361e7bc100011dc574,56,female,1,2,87,Clear_not_profit_side,3,0,0,0,right,left,left,1,2,1,0.053,9,15,144,283,0
5b7de8361e7bc100011dc574,56,female,1,2,88,Clear_not_profit_side,3,0,0,0,right,left,left,1,2,1,0.121,9,15,144,283,0
5b7de8361e7bc100011dc574,56,female,1,2,89,Clear_not_profit_side,3,0,0,0,right,left,left,1,2,1,0.051,9,15,144,283,0
5b7de8361e7bc100011dc574,56,female,1,2,90,Clear_not_profit_side,3,0,0,0,right,left,left,1,2,1,0.063,9,15,144,283,0
5b7de8361e7bc100011dc574,56,female,1,2,91,Clear_not_profit_side,3,0,0,0,right,left,left,1,2,1,0.051,9,15,144,283,0
5b7de8361e7bc100011dc574,56,female,1,2,94,Clear_not_profit_side,3,0,0,0,right,left,left,1,2,1,0.049,9,15,144,283,0
5b7de8361e7bc100011dc574,56,female,1,2,95,Clear_not_profit_side,3,0,0,0,right,left,left,1,2,1,0.051,9,15,144,283,0
5b7de8361e7bc100011dc574,56,female,1,2,96,Clear_not_profit_side,3,0,0,0,right,left,left,1,2,1,0.044000000000000004,9,15,144,283,0
5d94aee42efd5f0017023e9e,18,female,1,1,2,Clear_not_profit_side,3,0,0,0,left,right,right,1,2,1,0.237,7,12,138,278,0
5d94aee42efd5f0017023e9e,18,female,1,1,8,Clear_not_profit_side,3,0,0,0,left,right,right,1,2,1,0.27399999999999997,7,12,138,278,0
5d94aee42efd5f0017023e9e,18,female,1,1,9,Clear_not_profit_side,3,0,0,0,left,right,right,1,2,1,0.16899999999999998,7,12,138,278,0
5d94aee42efd5f0017023e9e,18,female,1,1,12,Clear_not_profit_side,3,0,0,0,left,right,right,1,2,1,0.168,7,12,138,278,0
5d94aee42efd5f0017023e9e,18,female,1,1,13,Clear_not_profit_side,3,0,0,0,left,right,right,1,2,1,0.16899999999999998,7,12,138,278,0
5d94aee42efd5f0017023e9e,18,female,1,1,18,Clear_not_profit_side,3,0,0,0,left,right,right,1,2,1,0.188,7,12,138,278,0
5d94aee42efd5f0017023e9e,18,female,1,1,19,Clear_not_profit_side,3,0,0,0,left,right,right,1,2,1,0.17,7,12,138,278,0
5d94aee42efd5f0017023e9e,18,female,1,1,22,Clear_not_profit_side,3,0,0,0,left,right,right,1,2,1,0.183,7,12,138,278,0
5d94aee42efd5f0017023e9e,18,female,1,1,26,Clear_not_profit_side,3,0,0,0,left,right,right,1,2,1,0.2,7,12,138,278,0
5d94aee42efd5f0017023e9e,18,female,1,1,27,Clear_not_profit_side,3,0,0,0,left,right,right,1,2,1,0.149,7,12,138,278,0
5d94aee42efd5f0017023e9e,18,female,1,1,32,Clear_not_profit_side,3,0,0,0,left,right,right,1,2,1,0.14400000000000002,7,12,138,278,0
5d94aee42efd5f0017023e9e,18,female,1,1,36,Clear_not_profit_side,3,0,0,0,left,right,right,1,2,1,0.179,7,12,138,278,0
5d94aee42efd5f0017023e9e,18,female,1,1,37,Clear_not_profit_side,3,0,0,0,left,right,right,1,2,1,0.147,7,12,138,278,0
5d94aee42efd5f0017023e9e,18,female,1,1,38,Clear_not_profit_side,3,0,0,0,left,right,right,1,2,1,0.151,7,12,138,278,0
5d94aee42efd5f0017023e9e,18,female,1,1,41,Clear_not_profit_side,3,0,0,0,left,right,right,1,2,1,0.159,7,12,138,278,0
5d94aee42efd5f0017023e9e,18,female,1,1,42,Clear_not_profit_side,3,0,0,0,left,right,right,1,2,1,0.161,7,12,138,278,0
5d94aee42efd5f0017023e9e,18,female,1,1,44,Clear_not_profit_side,3,0,0,0,left,right,right,1,2,1,0.159,7,12,138,278,0
5d94aee42efd5f0017023e9e,18,female,1,1,45,Clear_not_profit_side,3,0,0,0,left,right,right,1,2,1,0.188,7,12,138,278,0
5d94aee42efd5f0017023e9e,18,female,1,1,46,Clear_not_profit_side,3,0,0,0,left,right,right,1,2,1,0.146,7,12,138,278,0
5d94aee42efd5f0017023e9e,18,female,1,1,48,Clear_not_profit_side,3,0,0,0,left,right,right,1,2,1,0.321,7,12,138,278,0
5d94aee42efd5f0017023e9e,18,female,1,1,51,Clear_not_profit_side,3,0,0,0,left,right,right,1,2,1,0.14800000000000002,7,12,138,278,0
5d94aee42efd5f0017023e9e,18,female,1,1,58,Clear_not_profit_side,3,0,0,0,left,right,right,1,2,1,0.22699999999999998,7,12,138,278,0
5d94aee42efd5f0017023e9e,18,female,1,1,60,Clear_not_profit_side,3,0,0,0,left,right,right,1,2,1,0.3,7,12,138,278,0
5d94aee42efd5f0017023e9e,18,female,1,1,64,Clear_not_profit_side,3,0,0,0,left,right,right,1,2,1,0.20600000000000002,7,12,138,278,0
5d94aee42efd5f0017023e9e,18,female,1,1,68,Clear_not_profit_side,3,0,0,0,left,right,right,1,2,1,0.195,7,12,138,278,0
5d94aee42efd5f0017023e9e,18,female,1,1,69,Clear_not_profit_side,3,0,0,0,left,right,right,1,2,1,0.145,7,12,138,278,0
5d94aee42efd5f0017023e9e,18,female,1,1,72,Clear_not_profit_side,3,0,0,0,left,right,right,1,2,1,0.17800000000000002,7,12,138,278,0
5d94aee42efd5f0017023e9e,18,female,1,1,87,Clear_not_profit_side,3,0,0,0,left,right,right,1,2,1,0.165,7,12,138,278,0
5d94aee42efd5f0017023e9e,18,female,1,1,88,Clear_not_profit_side,3,0,0,0,left,right,right,1,2,1,0.145,7,12,138,278,0
5d94aee42efd5f0017023e9e,18,female,1,1,89,Clear_not_profit_side,3,0,0,0,left,right,right,1,2,1,0.385,7,12,138,278,0
5d94aee42efd5f0017023e9e,18,female,1,1,93,Clear_not_profit_side,3,0,0,0,left,right,right,1,2,1,0.193,7,12,138,278,0
5d94aee42efd5f0017023e9e,18,female,1,1,95,Clear_not_profit_side,3,0,0,0,left,right,right,1,2,1,0.145,7,12,138,278,0
5d94aee42efd5f0017023e9e,18,female,1,1,96,Clear_not_profit_side,3,0,0,0,left,right,right,1,2,1,0.155,7,12,138,278,0
5d94aee42efd5f0017023e9e,18,female,1,1,97,Clear_not_profit_side,3,0,0,0,left,right,right,1,2,1,0.154,7,12,138,278,0
5d94aee42efd5f0017023e9e,18,female,1,2,2,Clear_not_profit_side,3,0,0,0,left,right,right,1,2,1,0.263,5,12,140,278,0
5d94aee42efd5f0017023e9e,18,female,1,2,3,Clear_not_profit_side,3,0,0,0,left,right,right,1,2,1,0.16399999999999998,5,12,140,278,0
5d94aee42efd5f0017023e9e,18,female,1,2,4,Clear_not_profit_side,3,0,0,0,left,right,right,1,2,1,0.184,5,12,140,278,0
5d94aee42efd5f0017023e9e,18,female,1,2,5,Clear_not_profit_side,3,0,0,0,left,right,right,1,2,1,0.22,5,12,140,278,0
5d94aee42efd5f0017023e9e,18,female,1,2,8,Clear_not_profit_side,3,0,0,0,left,right,right,1,2,1,0.316,5,12,140,278,0
5d94aee42efd5f0017023e9e,18,female,1,2,9,Clear_not_profit_side,3,0,0,0,left,right,right,1,2,1,0.182,5,12,140,278,0
5d94aee42efd5f0017023e9e,18,female,1,2,11,Clear_not_profit_side,3,0,0,0,left,right,right,1,2,1,0.156,5,12,140,278,0
5d94aee42efd5f0017023e9e,18,female,1,2,12,Clear_not_profit_side,3,0,0,0,left,right,right,1,2,1,0.187,5,12,140,278,0
5d94aee42efd5f0017023e9e,18,female,1,2,15,Clear_not_profit_side,3,0,0,0,left,right,right,1,2,1,0.16399999999999998,5,12,140,278,0
5d94aee42efd5f0017023e9e,18,female,1,2,16,Clear_not_profit_side,3,0,0,0,left,right,right,1,2,1,0.183,5,12,140,278,0
5d94aee42efd5f0017023e9e,18,female,1,2,20,Clear_not_profit_side,3,0,0,0,left,right,right,1,2,1,0.252,5,12,140,278,0
5d94aee42efd5f0017023e9e,18,female,1,2,21,Clear_not_profit_side,3,0,0,0,left,right,right,1,2,1,0.158,5,12,140,278,0
5d94aee42efd5f0017023e9e,18,female,1,2,22,Clear_not_profit_side,3,0,0,0,left,right,right,1,2,1,0.152,5,12,140,278,0
5d94aee42efd5f0017023e9e,18,female,1,2,37,Clear_not_profit_side,3,0,0,0,left,right,right,1,2,1,0.221,5,12,140,278,0
5d94aee42efd5f0017023e9e,18,female,1,2,38,Clear_not_profit_side,3,0,0,0,left,right,right,1,2,1,0.19699999999999998,5,12,140,278,0
5d94aee42efd5f0017023e9e,18,female,1,2,42,Clear_not_profit_side,3,0,0,0,left,right,right,1,2,1,0.215,5,12,140,278,0
5d94aee42efd5f0017023e9e,18,female,1,2,43,Clear_not_profit_side,3,0,0,0,left,right,right,1,2,1,0.193,5,12,140,278,0
5d94aee42efd5f0017023e9e,18,female,1,2,44,Clear_not_profit_side,3,0,0,0,left,right,right,1,2,1,0.162,5,12,140,278,0
5d94aee42efd5f0017023e9e,18,female,1,2,55,Clear_not_profit_side,3,0,0,0,left,right,right,1,2,1,0.46399999999999997,5,12,140,278,0
5d94aee42efd5f0017023e9e,18,female,1,2,56,Clear_not_profit_side,3,0,0,0,left,right,right,1,2,1,0.222,5,12,140,278,0
5d94aee42efd5f0017023e9e,18,female,1,2,58,Clear_not_profit_side,3,0,0,0,left,right,right,1,2,1,0.153,5,12,140,278,0
5d94aee42efd5f0017023e9e,18,female,1,2,59,Clear_not_profit_side,3,0,0,0,left,right,right,1,2,1,0.151,5,12,140,278,0
5d94aee42efd5f0017023e9e,18,female,1,2,60,Clear_not_profit_side,3,0,0,0,left,right,right,1,2,1,0.133,5,12,140,278,0
5d94aee42efd5f0017023e9e,18,female,1,2,65,Clear_not_profit_side,3,0,0,0,left,right,right,1,2,1,0.22,5,12,140,278,0
5d94aee42efd5f0017023e9e,18,female,1,2,71,Clear_not_profit_side,3,0,0,0,left,right,right,1,2,1,0.18600000000000003,5,12,140,278,0
5d94aee42efd5f0017023e9e,18,female,1,2,72,Clear_not_profit_side,3,0,0,0,left,right,right,1,2,1,0.14800000000000002,5,12,140,278,0
5d94aee42efd5f0017023e9e,18,female,1,2,75,Clear_not_profit_side,3,0,0,0,left,right,right,1,2,1,0.182,5,12,140,278,0
5d94aee42efd5f0017023e9e,18,female,1,2,77,Clear_not_profit_side,3,0,0,0,left,right,right,1,2,1,0.22399999999999998,5,12,140,278,0
5d94aee42efd5f0017023e9e,18,female,1,2,81,Clear_not_profit_side,3,0,0,0,left,right,right,1,2,1,0.14400000000000002,5,12,140,278,0
5d94aee42efd5f0017023e9e,18,female,1,2,85,Clear_not_profit_side,3,0,0,0,left,right,right,1,2,1,0.16,5,12,140,278,0
5d94aee42efd5f0017023e9e,18,female,1,2,89,Clear_not_profit_side,3,0,0,0,left,right,right,1,2,1,0.171,5,12,140,278,0
5d94aee42efd5f0017023e9e,18,female,1,2,90,Clear_not_profit_side,3,0,0,0,left,right,right,1,2,1,0.146,5,12,140,278,0
5d94aee42efd5f0017023e9e,18,female,1,2,95,Clear_not_profit_side,3,0,0,0,left,right,right,1,2,1,0.18100000000000002,5,12,140,278,0
5d94aee42efd5f0017023e9e,18,female,1,2,98,Clear_not_profit_side,3,0,0,0,left,right,right,1,2,1,0.151,5,12,140,278,0
5df2476e398bb6146cb2c8e1,29,male,1,1,6,Clear_not_profit_side,2,10,0,0,left,right,right,1,20,1,0.179,13,20,510,1190,0
5df2476e398bb6146cb2c8e1,29,male,1,1,8,Clear_not_profit_side,2,10,0,0,left,right,right,1,20,1,0.374,13,20,510,1190,0
5df2476e398bb6146cb2c8e1,29,male,1,1,9,Clear_not_profit_side,2,10,1,180,left,right,left,-160,-179,0,0.14,13,20,510,1190,1
5df2476e398bb6146cb2c8e1,29,male,1,1,10,Clear_not_profit_side,2,10,1,180,left,right,right,1,-160,1,0.133,13,20,510,1190,0
5df2476e398bb6146cb2c8e1,29,male,1,1,12,Clear_not_profit_side,2,10,0,0,left,right,right,1,20,1,0.899,13,20,510,1190,0
5df2476e398bb6146cb2c8e1,29,male,1,1,14,Clear_not_profit_side,2,10,0,0,left,right,right,1,20,1,0.2,13,20,510,1190,0
5df2476e398bb6146cb2c8e1,29,male,1,1,18,Clear_not_profit_side,2,10,0,0,left,right,right,1,20,1,0.125,13,20,510,1190,0
5df2476e398bb6146cb2c8e1,29,male,1,1,20,Clear_not_profit_side,2,10,0,0,left,right,right,1,20,1,0.124,13,20,510,1190,0
5df2476e398bb6146cb2c8e1,29,male,1,1,24,Clear_not_profit_side,2,10,0,0,left,right,left,20,1,0,0.17300000000000001,13,20,510,1190,1
5df2476e398bb6146cb2c8e1,29,male,1,1,28,Clear_not_profit_side,2,10,0,0,left,right,right,1,20,1,0.113,13,20,510,1190,0
5df2476e398bb6146cb2c8e1,29,male,1,1,31,Clear_not_profit_side,2,10,0,0,left,right,right,1,20,1,0.171,13,20,510,1190,0
5df2476e398bb6146cb2c8e1,29,male,1,1,33,Clear_not_profit_side,2,10,0,0,left,right,right,1,20,1,0.11199999999999999,13,20,510,1190,0
5df2476e398bb6146cb2c8e1,29,male,1,1,38,Clear_not_profit_side,2,10,0,0,left,right,right,1,20,1,0.09300000000000001,13,20,510,1190,0
5df2476e398bb6146cb2c8e1,29,male,1,1,43,Clear_not_profit_side,2,10,0,0,left,right,right,1,20,1,0.10300000000000001,13,20,510,1190,0
5df2476e398bb6146cb2c8e1,29,male,1,1,49,Clear_not_profit_side,2,10,0,0,left,right,right,1,20,1,0.124,13,20,510,1190,0
5df2476e398bb6146cb2c8e1,29,male,1,1,52,Clear_not_profit_side,2,10,0,0,left,right,right,1,20,1,0.168,13,20,510,1190,0
5df2476e398bb6146cb2c8e1,29,male,1,1,53,Clear_not_profit_side,2,10,0,0,left,right,right,1,20,1,0.105,13,20,510,1190,0
5df2476e398bb6146cb2c8e1,29,male,1,1,56,Clear_not_profit_side,2,10,0,0,left,right,right,1,20,1,0.188,13,20,510,1190,0
5df2476e398bb6146cb2c8e1,29,male,1,1,57,Clear_not_profit_side,2,10,0,0,left,right,right,1,20,1,0.127,13,20,510,1190,0
5df2476e398bb6146cb2c8e1,29,male,1,1,58,Clear_not_profit_side,2,10,1,180,left,right,right,1,-160,1,0.113,13,20,510,1190,0
5df2476e398bb6146cb2c8e1,29,male,1,1,60,Clear_not_profit_side,2,10,0,0,left,right,right,1,20,1,0.131,13,20,510,1190,0
5df2476e398bb6146cb2c8e1,29,male,1,1,65,Clear_not_profit_side,2,10,0,0,left,right,right,1,20,1,0.145,13,20,510,1190,0
5df2476e398bb6146cb2c8e1,29,male,1,1,66,Clear_not_profit_side,2,10,0,0,left,right,right,1,20,1,0.10800000000000001,13,20,510,1190,0
5df2476e398bb6146cb2c8e1,29,male,1,1,68,Clear_not_profit_side,2,10,0,0,left,right,right,1,20,1,0.14300000000000002,13,20,510,1190,0
5df2476e398bb6146cb2c8e1,29,male,1,1,69,Clear_not_profit_side,2,10,0,0,left,right,right,1,20,1,0.10800000000000001,13,20,510,1190,0
5df2476e398bb6146cb2c8e1,29,male,1,1,70,Clear_not_profit_side,2,10,0,0,left,right,right,1,20,1,0.115,13,20,510,1190,0
5df2476e398bb6146cb2c8e1,29,male,1,1,71,Clear_not_profit_side,2,10,0,0,left,right,right,1,20,1,0.128,13,20,510,1190,0
5df2476e398bb6146cb2c8e1,29,male,1,1,73,Clear_not_profit_side,2,10,0,0,left,right,right,1,20,1,0.124,13,20,510,1190,0
5df2476e398bb6146cb2c8e1,29,male,1,1,75,Clear_not_profit_side,2,10,0,0,left,right,right,1,20,1,0.11,13,20,510,1190,0
5df2476e398bb6146cb2c8e1,29,male,1,1,77,Clear_not_profit_side,2,10,0,0,left,right,right,1,20,1,0.113,13,20,510,1190,0
5df2476e398bb6146cb2c8e1,29,male,1,1,79,Clear_not_profit_side,2,10,0,0,left,right,right,1,20,1,0.239,13,20,510,1190,0
5df2476e398bb6146cb2c8e1,29,male,1,1,83,Clear_not_profit_side,2,10,0,0,left,right,right,1,20,1,0.1,13,20,510,1190,0
5df2476e398bb6146cb2c8e1,29,male,1,1,84,Clear_not_profit_side,2,10,0,0,left,right,right,1,20,1,0.11199999999999999,13,20,510,1190,0
5df2476e398bb6146cb2c8e1,29,male,1,1,86,Clear_not_profit_side,2,10,0,0,left,right,right,1,20,1,0.122,13,20,510,1190,0
5df2476e398bb6146cb2c8e1,29,male,1,2,4,Clear_not_profit_side,2,10,1,180,left,right,right,1,-160,1,0.07400000000000001,7,20,680,1190,0
5df2476e398bb6146cb2c8e1,29,male,1,2,5,Clear_not_profit_side,2,10,1,180,left,right,right,1,-160,1,0.096,7,20,680,1190,0
5df2476e398bb6146cb2c8e1,29,male,1,2,6,Clear_not_profit_side,2,10,1,180,left,right,right,1,-160,1,0.086,7,20,680,1190,0
5df2476e398bb6146cb2c8e1,29,male,1,2,10,Clear_not_profit_side,2,10,0,0,left,right,right,1,20,1,0.122,7,20,680,1190,0
5df2476e398bb6146cb2c8e1,29,male,1,2,13,Clear_not_profit_side,2,10,0,0,left,right,right,1,20,1,0.085,7,20,680,1190,0
5df2476e398bb6146cb2c8e1,29,male,1,2,18,Clear_not_profit_side,2,10,1,180,left,right,right,1,-160,1,0.076,7,20,680,1190,0
5df2476e398bb6146cb2c8e1,29,male,1,2,19,Clear_not_profit_side,2,10,0,0,left,right,right,1,20,1,0.092,7,20,680,1190,0
5df2476e398bb6146cb2c8e1,29,male,1,2,20,Clear_not_profit_side,2,10,0,0,left,right,right,1,20,1,0.091,7,20,680,1190,0
5df2476e398bb6146cb2c8e1,29,male,1,2,21,Clear_not_profit_side,2,10,0,0,left,right,right,1,20,1,0.09699999999999999,7,20,680,1190,0
5df2476e398bb6146cb2c8e1,29,male,1,2,22,Clear_not_profit_side,2,10,0,0,left,right,right,1,20,1,0.064,7,20,680,1190,0
5df2476e398bb6146cb2c8e1,29,male,1,2,30,Clear_not_profit_side,2,10,0,0,left,right,right,1,20,1,0.11599999999999999,7,20,680,1190,0
5df2476e398bb6146cb2c8e1,29,male,1,2,34,Clear_not_profit_side,2,10,0,0,left,right,right,1,20,1,0.073,7,20,680,1190,0
5df2476e398bb6146cb2c8e1,29,male,1,2,35,Clear_not_profit_side,2,10,0,0,left,right,right,1,20,1,0.07,7,20,680,1190,0
5df2476e398bb6146cb2c8e1,29,male,1,2,40,Clear_not_profit_side,2,10,0,0,left,right,right,1,20,1,0.095,7,20,680,1190,0
5df2476e398bb6146cb2c8e1,29,male,1,2,42,Clear_not_profit_side,2,10,0,0,left,right,right,1,20,1,0.069,7,20,680,1190,0
5df2476e398bb6146cb2c8e1,29,male,1,2,46,Clear_not_profit_side,2,10,0,0,left,right,right,1,20,1,0.075,7,20,680,1190,0
5df2476e398bb6146cb2c8e1,29,male,1,2,49,Clear_not_profit_side,2,10,0,0,left,right,right,1,20,1,0.10300000000000001,7,20,680,1190,0
5df2476e398bb6146cb2c8e1,29,male,1,2,53,Clear_not_profit_side,2,10,0,0,left,right,right,1,20,1,0.09,7,20,680,1190,0
5df2476e398bb6146cb2c8e1,29,male,1,2,54,Clear_not_profit_side,2,10,0,0,left,right,right,1,20,1,0.185,7,20,680,1190,0
5df2476e398bb6146cb2c8e1,29,male,1,2,56,Clear_not_profit_side,2,10,0,0,left,right,right,1,20,1,0.065,7,20,680,1190,0
5df2476e398bb6146cb2c8e1,29,male,1,2,59,Clear_not_profit_side,2,10,0,0,left,right,right,1,20,1,0.077,7,20,680,1190,0
5df2476e398bb6146cb2c8e1,29,male,1,2,61,Clear_not_profit_side,2,10,0,0,left,right,right,1,20,1,0.105,7,20,680,1190,0
5df2476e398bb6146cb2c8e1,29,male,1,2,66,Clear_not_profit_side,2,10,0,0,left,right,right,1,20,1,0.091,7,20,680,1190,0
5df2476e398bb6146cb2c8e1,29,male,1,2,68,Clear_not_profit_side,2,10,0,0,left,right,right,1,20,1,0.07200000000000001,7,20,680,1190,0
5df2476e398bb6146cb2c8e1,29,male,1,2,69,Clear_not_profit_side,2,10,0,0,left,right,right,1,20,1,0.256,7,20,680,1190,0
5df2476e398bb6146cb2c8e1,29,male,1,2,70,Clear_not_profit_side,2,10,0,0,left,right,right,1,20,1,0.09699999999999999,7,20,680,1190,0
5df2476e398bb6146cb2c8e1,29,male,1,2,71,Clear_not_profit_side,2,10,0,0,left,right,right,1,20,1,0.063,7,20,680,1190,0
5df2476e398bb6146cb2c8e1,29,male,1,2,74,Clear_not_profit_side,2,10,0,0,left,right,right,1,20,1,0.2,7,20,680,1190,0
5df2476e398bb6146cb2c8e1,29,male,1,2,81,Clear_not_profit_side,2,10,0,0,left,right,right,1,20,1,0.053,7,20,680,1190,0
5df2476e398bb6146cb2c8e1,29,male,1,2,84,Clear_not_profit_side,2,10,0,0,left,right,right,1,20,1,0.08199999999999999,7,20,680,1190,0
5df2476e398bb6146cb2c8e1,29,male,1,2,87,Clear_not_profit_side,2,10,0,0,left,right,right,1,20,1,0.114,7,20,680,1190,0
5df2476e398bb6146cb2c8e1,29,male,1,2,89,Clear_not_profit_side,2,10,0,0,left,right,right,1,20,1,0.071,7,20,680,1190,0
5df2476e398bb6146cb2c8e1,29,male,1,2,90,Clear_not_profit_side,2,10,0,0,left,right,right,1,20,1,0.083,7,20,680,1190,0
5df2476e398bb6146cb2c8e1,29,male,1,2,93,Clear_not_profit_side,2,10,0,0,left,right,right,1,20,1,0.07,7,20,680,1190,0
5e793c9d572cea50199853e7,23,male,1,1,3,Clear_not_profit_side,2,10,0,0,right,left,left,1,20,1,0.048,7,12,614,1550,0
5e793c9d572cea50199853e7,23,male,1,1,4,Clear_not_profit_side,2,10,0,0,right,left,left,1,20,1,0.048,7,12,614,1550,0
5e793c9d572cea50199853e7,23,male,1,1,5,Clear_not_profit_side,2,10,0,0,right,left,left,1,20,1,0.037000000000000005,7,12,614,1550,0
5e793c9d572cea50199853e7,23,male,1,1,7,Clear_not_profit_side,2,10,0,0,right,left,left,1,20,1,0.038,7,12,614,1550,0
5e793c9d572cea50199853e7,23,male,1,1,9,Clear_not_profit_side,2,10,0,0,right,left,left,1,20,1,0.036000000000000004,7,12,614,1550,0
5e793c9d572cea50199853e7,23,male,1,1,11,Clear_not_profit_side,2,10,0,0,right,left,left,1,20,1,0.033,7,12,614,1550,0
5e793c9d572cea50199853e7,23,male,1,1,23,Clear_not_profit_side,2,10,0,0,right,left,left,1,20,1,0.031,7,12,614,1550,0
5e793c9d572cea50199853e7,23,male,1,1,25,Clear_not_profit_side,2,10,1,180,right,left,left,1,-160,1,0.033,7,12,614,1550,0
5e793c9d572cea50199853e7,23,male,1,1,26,Clear_not_profit_side,2,10,0,0,right,left,left,1,20,1,0.04,7,12,614,1550,0
5e793c9d572cea50199853e7,23,male,1,1,27,Clear_not_profit_side,2,10,1,180,right,left,left,1,-160,1,0.035,7,12,614,1550,0
5e793c9d572cea50199853e7,23,male,1,1,28,Clear_not_profit_side,2,10,0,0,right,left,left,1,20,1,0.036000000000000004,7,12,614,1550,0
5e793c9d572cea50199853e7,23,male,1,1,36,Clear_not_profit_side,2,10,0,0,right,left,left,1,20,1,0.034,7,12,614,1550,0
5e793c9d572cea50199853e7,23,male,1,1,37,Clear_not_profit_side,2,10,0,0,right,left,left,1,20,1,0.049,7,12,614,1550,0
5e793c9d572cea50199853e7,23,male,1,1,41,Clear_not_profit_side,2,10,0,0,right,left,left,1,20,1,0.028999999999999998,7,12,614,1550,0
5e793c9d572cea50199853e7,23,male,1,1,43,Clear_not_profit_side,2,10,0,0,right,left,left,1,20,1,0.039,7,12,614,1550,0
5e793c9d572cea50199853e7,23,male,1,1,45,Clear_not_profit_side,2,10,0,0,right,left,left,1,20,1,0.031,7,12,614,1550,0
5e793c9d572cea50199853e7,23,male,1,1,47,Clear_not_profit_side,2,10,1,180,right,left,left,1,-160,1,0.03,7,12,614,1550,0
5e793c9d572cea50199853e7,23,male,1,1,49,Clear_not_profit_side,2,10,0,0,right,left,left,1,20,1,0.03,7,12,614,1550,0
5e793c9d572cea50199853e7,23,male,1,1,50,Clear_not_profit_side,2,10,0,0,right,left,left,1,20,1,0.031,7,12,614,1550,0
5e793c9d572cea50199853e7,23,male,1,1,55,Clear_not_profit_side,2,10,1,180,right,left,left,1,-160,1,0.027000000000000003,7,12,614,1550,0
5e793c9d572cea50199853e7,23,male,1,1,57,Clear_not_profit_side,2,10,0,0,right,left,left,1,20,1,0.032,7,12,614,1550,0
5e793c9d572cea50199853e7,23,male,1,1,59,Clear_not_profit_side,2,10,0,0,right,left,left,1,20,1,0.054000000000000006,7,12,614,1550,0
5e793c9d572cea50199853e7,23,male,1,1,60,Clear_not_profit_side,2,10,0,0,right,left,left,1,20,1,0.042,7,12,614,1550,0
5e793c9d572cea50199853e7,23,male,1,1,62,Clear_not_profit_side,2,10,0,0,right,left,left,1,20,1,0.03,7,12,614,1550,0
5e793c9d572cea50199853e7,23,male,1,1,75,Clear_not_profit_side,2,10,0,0,right,left,left,1,20,1,0.022000000000000002,7,12,614,1550,0
5e793c9d572cea50199853e7,23,male,1,1,76,Clear_not_profit_side,2,10,0,0,right,left,left,1,20,1,0.021,7,12,614,1550,0
5e793c9d572cea50199853e7,23,male,1,1,77,Clear_not_profit_side,2,10,0,0,right,left,left,1,20,1,0.024,7,12,614,1550,0
5e793c9d572cea50199853e7,23,male,1,1,82,Clear_not_profit_side,2,10,0,0,right,left,left,1,20,1,0.027999999999999997,7,12,614,1550,0
5e793c9d572cea50199853e7,23,male,1,1,86,Clear_not_profit_side,2,10,0,0,right,left,left,1,20,1,0.025,7,12,614,1550,0
5e793c9d572cea50199853e7,23,male,1,1,89,Clear_not_profit_side,2,10,0,0,right,left,left,1,20,1,0.022000000000000002,7,12,614,1550,0
5e793c9d572cea50199853e7,23,male,1,1,91,Clear_not_profit_side,2,10,0,0,right,left,left,1,20,1,0.019,7,12,614,1550,0
5e793c9d572cea50199853e7,23,male,1,1,95,Clear_not_profit_side,2,10,0,0,right,left,left,1,20,1,0.022000000000000002,7,12,614,1550,0
5e793c9d572cea50199853e7,23,male,1,1,96,Clear_not_profit_side,2,10,0,0,right,left,left,1,20,1,0.038,7,12,614,1550,0
5e793c9d572cea50199853e7,23,male,1,1,99,Clear_not_profit_side,2,10,1,180,right,left,left,1,-160,1,0.032,7,12,614,1550,0
5e793c9d572cea50199853e7,23,male,1,2,5,Clear_not_profit_side,2,10,0,0,right,left,left,1,20,1,0.03,5,12,936,1550,0
5e793c9d572cea50199853e7,23,male,1,2,7,Clear_not_profit_side,2,10,0,0,right,left,left,1,20,1,0.03,5,12,936,1550,0
5e793c9d572cea50199853e7,23,male,1,2,10,Clear_not_profit_side,2,10,0,0,right,left,left,1,20,1,0.031,5,12,936,1550,0
5e793c9d572cea50199853e7,23,male,1,2,17,Clear_not_profit_side,2,10,0,0,right,left,left,1,20,1,0.046,5,12,936,1550,0
5e793c9d572cea50199853e7,23,male,1,2,19,Clear_not_profit_side,2,10,0,0,right,left,left,1,20,1,0.036000000000000004,5,12,936,1550,0
5e793c9d572cea50199853e7,23,male,1,2,20,Clear_not_profit_side,2,10,1,180,right,left,left,1,-160,1,0.026000000000000002,5,12,936,1550,0
5e793c9d572cea50199853e7,23,male,1,2,23,Clear_not_profit_side,2,10,0,0,right,left,left,1,20,1,0.026000000000000002,5,12,936,1550,0
5e793c9d572cea50199853e7,23,male,1,2,24,Clear_not_profit_side,2,10,0,0,right,left,left,1,20,1,0.027999999999999997,5,12,936,1550,0
5e793c9d572cea50199853e7,23,male,1,2,25,Clear_not_profit_side,2,10,1,180,right,left,left,1,-160,1,0.028999999999999998,5,12,936,1550,0
5e793c9d572cea50199853e7,23,male,1,2,29,Clear_not_profit_side,2,10,0,0,right,left,left,1,20,1,0.013999999999999999,5,12,936,1550,0
5e793c9d572cea50199853e7,23,male,1,2,40,Clear_not_profit_side,2,10,0,0,right,left,left,1,20,1,0.03,5,12,936,1550,0
5e793c9d572cea50199853e7,23,male,1,2,42,Clear_not_profit_side,2,10,0,0,right,left,left,1,20,1,0.021,5,12,936,1550,0
5e793c9d572cea50199853e7,23,male,1,2,44,Clear_not_profit_side,2,10,0,0,right,left,left,1,20,1,0.023,5,12,936,1550,0
5e793c9d572cea50199853e7,23,male,1,2,50,Clear_not_profit_side,2,10,0,0,right,left,left,1,20,1,0.026000000000000002,5,12,936,1550,0
5e793c9d572cea50199853e7,23,male,1,2,52,Clear_not_profit_side,2,10,0,0,right,left,left,1,20,1,0.031,5,12,936,1550,0
5e793c9d572cea50199853e7,23,male,1,2,57,Clear_not_profit_side,2,10,0,0,right,left,left,1,20,1,0.031,5,12,936,1550,0
5e793c9d572cea50199853e7,23,male,1,2,58,Clear_not_profit_side,2,10,0,0,right,left,left,1,20,1,0.034,5,12,936,1550,0
5e793c9d572cea50199853e7,23,male,1,2,60,Clear_not_profit_side,2,10,0,0,right,left,left,1,20,1,0.027000000000000003,5,12,936,1550,0
5e793c9d572cea50199853e7,23,male,1,2,62,Clear_not_profit_side,2,10,0,0,right,left,left,1,20,1,0.018000000000000002,5,12,936,1550,0
5e793c9d572cea50199853e7,23,male,1,2,67,Clear_not_profit_side,2,10,0,0,right,left,left,1,20,1,0.021,5,12,936,1550,0
5e793c9d572cea50199853e7,23,male,1,2,73,Clear_not_profit_side,2,10,1,180,right,left,left,1,-160,1,0.028999999999999998,5,12,936,1550,0
5e793c9d572cea50199853e7,23,male,1,2,74,Clear_not_profit_side,2,10,0,0,right,left,left,1,20,1,0.017,5,12,936,1550,0
5e793c9d572cea50199853e7,23,male,1,2,75,Clear_not_profit_side,2,10,0,0,right,left,left,1,20,1,0.021,5,12,936,1550,0
5e793c9d572cea50199853e7,23,male,1,2,78,Clear_not_profit_side,2,10,0,0,right,left,left,1,20,1,0.027999999999999997,5,12,936,1550,0
5e793c9d572cea50199853e7,23,male,1,2,79,Clear_not_profit_side,2,10,0,0,right,left,left,1,20,1,0.027000000000000003,5,12,936,1550,0
5e793c9d572cea50199853e7,23,male,1,2,81,Clear_not_profit_side,2,10,0,0,right,left,left,1,20,1,0.027000000000000003,5,12,936,1550,0
5e793c9d572cea50199853e7,23,male,1,2,83,Clear_not_profit_side,2,10,0,0,right,left,left,1,20,1,0.028999999999999998,5,12,936,1550,0
5e793c9d572cea50199853e7,23,male,1,2,84,Clear_not_profit_side,2,10,0,0,right,left,left,1,20,1,0.025,5,12,936,1550,0
5e793c9d572cea50199853e7,23,male,1,2,86,Clear_not_profit_side,2,10,1,180,right,left,left,1,-160,1,0.022000000000000002,5,12,936,1550,0
5e793c9d572cea50199853e7,23,male,1,2,87,Clear_not_profit_side,2,10,0,0,right,left,left,1,20,1,0.028999999999999998,5,12,936,1550,0
5e793c9d572cea50199853e7,23,male,1,2,89,Clear_not_profit_side,2,10,0,0,right,left,left,1,20,1,0.02,5,12,936,1550,0
5e793c9d572cea50199853e7,23,male,1,2,90,Clear_not_profit_side,2,10,0,0,right,left,left,1,20,1,0.026000000000000002,5,12,936,1550,0
5e793c9d572cea50199853e7,23,male,1,2,91,Clear_not_profit_side,2,10,0,0,right,left,left,1,20,1,0.028999999999999998,5,12,936,1550,0
5e793c9d572cea50199853e7,23,male,1,2,95,Clear_not_profit_side,2,10,0,0,right,left,left,1,20,1,0.027999999999999997,5,12,936,1550,0
5ec29601269fcc072b89c5c8,20,male,0,1,1,Clear_not_profit_side,1,90,1,20,left,right,right,1,0,1,0.095,15,28,600,1448,0
5ec29601269fcc072b89c5c8,20,male,0,1,6,Clear_not_profit_side,1,90,1,20,left,right,right,1,0,1,0.064,15,28,600,1448,0
5ec29601269fcc072b89c5c8,20,male,0,1,9,Clear_not_profit_side,1,90,1,20,left,right,right,1,0,1,0.077,15,28,600,1448,0
5ec29601269fcc072b89c5c8,20,male,0,1,10,Clear_not_profit_side,1,90,1,20,left,right,right,1,0,1,0.1,15,28,600,1448,0
5ec29601269fcc072b89c5c8,20,male,0,1,18,Clear_not_profit_side,1,90,1,20,left,right,right,1,0,1,0.057,15,28,600,1448,0
5ec29601269fcc072b89c5c8,20,male,0,1,29,Clear_not_profit_side,1,90,1,20,left,right,right,1,0,1,0.062,15,28,600,1448,0
5ec29601269fcc072b89c5c8,20,male,0,1,31,Clear_not_profit_side,1,90,1,20,left,right,right,1,0,1,0.098,15,28,600,1448,0
5ec29601269fcc072b89c5c8,20,male,0,1,35,Clear_not_profit_side,1,90,1,20,left,right,right,1,0,1,0.08900000000000001,15,28,600,1448,0
5ec29601269fcc072b89c5c8,20,male,0,1,41,Clear_not_profit_side,1,90,1,20,left,right,right,1,0,1,0.06,15,28,600,1448,0
5ec29601269fcc072b89c5c8,20,male,0,1,42,Clear_not_profit_side,1,90,1,20,left,right,right,1,0,1,0.071,15,28,600,1448,0
5ec29601269fcc072b89c5c8,20,male,0,1,48,Clear_not_profit_side,1,90,1,20,left,right,right,1,0,1,0.087,15,28,600,1448,0
5ec29601269fcc072b89c5c8,20,male,0,1,50,Clear_not_profit_side,1,90,1,20,left,right,right,1,0,1,0.069,15,28,600,1448,0
5ec29601269fcc072b89c5c8,20,male,0,1,51,Clear_not_profit_side,1,90,1,20,left,right,right,1,0,1,0.061,15,28,600,1448,0
5ec29601269fcc072b89c5c8,20,male,0,1,52,Clear_not_profit_side,1,90,1,20,left,right,right,1,0,1,0.1,15,28,600,1448,0
5ec29601269fcc072b89c5c8,20,male,0,1,55,Clear_not_profit_side,1,90,1,20,left,right,right,1,0,1,0.071,15,28,600,1448,0
5ec29601269fcc072b89c5c8,20,male,0,1,57,Clear_not_profit_side,1,90,1,20,left,right,right,1,0,1,0.152,15,28,600,1448,0
5ec29601269fcc072b89c5c8,20,male,0,1,61,Clear_not_profit_side,1,90,1,20,left,right,right,1,0,1,0.10300000000000001,15,28,600,1448,0
5ec29601269fcc072b89c5c8,20,male,0,1,63,Clear_not_profit_side,1,90,1,20,left,right,right,1,0,1,0.091,15,28,600,1448,0
5ec29601269fcc072b89c5c8,20,male,0,1,67,Clear_not_profit_side,1,90,1,20,left,right,right,1,0,1,0.114,15,28,600,1448,0
5ec29601269fcc072b89c5c8,20,male,0,1,69,Clear_not_profit_side,1,90,1,20,left,right,right,1,0,1,0.07200000000000001,15,28,600,1448,0
5ec29601269fcc072b89c5c8,20,male,0,1,70,Clear_not_profit_side,1,90,1,20,left,right,right,1,0,1,0.075,15,28,600,1448,0
5ec29601269fcc072b89c5c8,20,male,0,1,71,Clear_not_profit_side,1,90,1,20,left,right,right,1,0,1,0.075,15,28,600,1448,0
5ec29601269fcc072b89c5c8,20,male,0,1,72,Clear_not_profit_side,1,90,1,20,left,right,right,1,0,1,0.131,15,28,600,1448,0
5ec29601269fcc072b89c5c8,20,male,0,1,74,Clear_not_profit_side,1,90,1,20,left,right,right,1,0,1,0.057,15,28,600,1448,0
5ec29601269fcc072b89c5c8,20,male,0,1,75,Clear_not_profit_side,1,90,1,20,left,right,left,0,-19,0,0.129,15,28,600,1448,1
5ec29601269fcc072b89c5c8,20,male,0,1,79,Clear_not_profit_side,1,90,1,20,left,right,right,1,0,1,0.085,15,28,600,1448,0
5ec29601269fcc072b89c5c8,20,male,0,1,80,Clear_not_profit_side,1,90,1,20,left,right,right,1,0,1,0.054000000000000006,15,28,600,1448,0
5ec29601269fcc072b89c5c8,20,male,0,1,82,Clear_not_profit_side,1,90,0,0,left,right,right,1,20,1,0.068,15,28,600,1448,0
5ec29601269fcc072b89c5c8,20,male,0,1,86,Clear_not_profit_side,1,90,1,20,left,right,right,1,0,1,0.073,15,28,600,1448,0
5ec29601269fcc072b89c5c8,20,male,0,1,88,Clear_not_profit_side,1,90,1,20,left,right,right,1,0,1,0.065,15,28,600,1448,0
5ec29601269fcc072b89c5c8,20,male,0,1,91,Clear_not_profit_side,1,90,0,0,left,right,left,20,1,0,0.083,15,28,600,1448,1
5ec29601269fcc072b89c5c8,20,male,0,1,92,Clear_not_profit_side,1,90,1,20,left,right,right,1,0,1,0.064,15,28,600,1448,0
5ec29601269fcc072b89c5c8,20,male,0,1,95,Clear_not_profit_side,1,90,1,20,left,right,right,1,0,1,0.079,15,28,600,1448,0
5ec29601269fcc072b89c5c8,20,male,0,1,96,Clear_not_profit_side,1,90,1,20,left,right,right,1,0,1,0.07200000000000001,15,28,600,1448,0
5ec29601269fcc072b89c5c8,20,male,0,2,2,Clear_not_profit_side,1,90,0,0,left,right,right,1,20,1,0.066,13,28,848,1448,0
5ec29601269fcc072b89c5c8,20,male,0,2,12,Clear_not_profit_side,1,90,1,20,left,right,right,1,0,1,0.05,13,28,848,1448,0
5ec29601269fcc072b89c5c8,20,male,0,2,15,Clear_not_profit_side,1,90,1,20,left,right,right,1,0,1,0.052000000000000005,13,28,848,1448,0
5ec29601269fcc072b89c5c8,20,male,0,2,17,Clear_not_profit_side,1,90,1,20,left,right,right,1,0,1,0.07200000000000001,13,28,848,1448,0
5ec29601269fcc072b89c5c8,20,male,0,2,21,Clear_not_profit_side,1,90,1,20,left,right,right,1,0,1,0.049,13,28,848,1448,0
5ec29601269fcc072b89c5c8,20,male,0,2,25,Clear_not_profit_side,1,90,1,20,left,right,right,1,0,1,0.055999999999999994,13,28,848,1448,0
5ec29601269fcc072b89c5c8,20,male,0,2,26,Clear_not_profit_side,1,90,1,20,left,right,right,1,0,1,0.07,13,28,848,1448,0
5ec29601269fcc072b89c5c8,20,male,0,2,28,Clear_not_profit_side,1,90,1,20,left,right,right,1,0,1,0.354,13,28,848,1448,0
5ec29601269fcc072b89c5c8,20,male,0,2,31,Clear_not_profit_side,1,90,1,20,left,right,right,1,0,1,0.094,13,28,848,1448,0
5ec29601269fcc072b89c5c8,20,male,0,2,33,Clear_not_profit_side,1,90,1,20,left,right,right,1,0,1,0.077,13,28,848,1448,0
5ec29601269fcc072b89c5c8,20,male,0,2,35,Clear_not_profit_side,1,90,1,20,left,right,right,1,0,1,0.063,13,28,848,1448,0
5ec29601269fcc072b89c5c8,20,male,0,2,37,Clear_not_profit_side,1,90,1,20,left,right,right,1,0,1,0.054000000000000006,13,28,848,1448,0
5ec29601269fcc072b89c5c8,20,male,0,2,40,Clear_not_profit_side,1,90,1,20,left,right,right,1,0,1,0.057,13,28,848,1448,0
5ec29601269fcc072b89c5c8,20,male,0,2,41,Clear_not_profit_side,1,90,1,20,left,right,right,1,0,1,0.053,13,28,848,1448,0
5ec29601269fcc072b89c5c8,20,male,0,2,45,Clear_not_profit_side,1,90,1,20,left,right,right,1,0,1,0.084,13,28,848,1448,0
5ec29601269fcc072b89c5c8,20,male,0,2,47,Clear_not_profit_side,1,90,0,0,left,right,right,1,20,1,0.076,13,28,848,1448,0
5ec29601269fcc072b89c5c8,20,male,0,2,49,Clear_not_profit_side,1,90,1,20,left,right,right,1,0,1,0.071,13,28,848,1448,0
5ec29601269fcc072b89c5c8,20,male,0,2,54,Clear_not_profit_side,1,90,1,20,left,right,right,1,0,1,0.073,13,28,848,1448,0
5ec29601269fcc072b89c5c8,20,male,0,2,56,Clear_not_profit_side,1,90,1,20,left,right,left,0,-19,0,0.079,13,28,848,1448,1
5ec29601269fcc072b89c5c8,20,male,0,2,57,Clear_not_profit_side,1,90,1,20,left,right,right,1,0,1,0.094,13,28,848,1448,0
5ec29601269fcc072b89c5c8,20,male,0,2,58,Clear_not_profit_side,1,90,0,0,left,right,left,20,1,0,0.147,13,28,848,1448,1
5ec29601269fcc072b89c5c8,20,male,0,2,60,Clear_not_profit_side,1,90,1,20,left,right,right,1,0,1,0.08199999999999999,13,28,848,1448,0
5ec29601269fcc072b89c5c8,20,male,0,2,69,Clear_not_profit_side,1,90,1,20,left,right,right,1,0,1,0.106,13,28,848,1448,0
5ec29601269fcc072b89c5c8,20,male,0,2,70,Clear_not_profit_side,1,90,0,0,left,right,right,1,20,1,0.06,13,28,848,1448,0
5ec29601269fcc072b89c5c8,20,male,0,2,71,Clear_not_profit_side,1,90,1,20,left,right,right,1,0,1,0.057,13,28,848,1448,0
5ec29601269fcc072b89c5c8,20,male,0,2,75,Clear_not_profit_side,1,90,1,20,left,right,right,1,0,1,0.102,13,28,848,1448,0
5ec29601269fcc072b89c5c8,20,male,0,2,78,Clear_not_profit_side,1,90,1,20,left,right,left,0,-19,0,0.071,13,28,848,1448,1
5ec29601269fcc072b89c5c8,20,male,0,2,83,Clear_not_profit_side,1,90,1,20,left,right,right,1,0,1,0.08900000000000001,13,28,848,1448,0
5ec29601269fcc072b89c5c8,20,male,0,2,86,Clear_not_profit_side,1,90,1,20,left,right,right,1,0,1,0.078,13,28,848,1448,0
5ec29601269fcc072b89c5c8,20,male,0,2,87,Clear_not_profit_side,1,90,1,20,left,right,right,1,0,1,0.013000000000000001,13,28,848,1448,0
5ec29601269fcc072b89c5c8,20,male,0,2,88,Clear_not_profit_side,1,90,1,20,left,right,right,1,0,1,0.24100000000000002,13,28,848,1448,0
5ec29601269fcc072b89c5c8,20,male,0,2,90,Clear_not_profit_side,1,90,1,20,left,right,right,1,0,1,0.08199999999999999,13,28,848,1448,0
5ec29601269fcc072b89c5c8,20,male,0,2,95,Clear_not_profit_side,1,90,0,0,left,right,right,1,20,1,0.047,13,28,848,1448,0
5ec29601269fcc072b89c5c8,20,male,0,2,100,Clear_not_profit_side,1,90,1,20,left,right,right,1,0,1,0.039,13,28,848,1448,0
5aaa7bde56c51000018cc7b5,27,female,1,1,2,Clear_not_profit_side,3,0,0,0,left,right,right,1,2,1,0.235,6,10,139,278,0
5aaa7bde56c51000018cc7b5,27,female,1,1,5,Clear_not_profit_side,3,0,0,0,left,right,right,1,2,1,0.192,6,10,139,278,0
5aaa7bde56c51000018cc7b5,27,female,1,1,11,Clear_not_profit_side,3,0,0,0,left,right,right,1,2,1,0.153,6,10,139,278,0
5aaa7bde56c51000018cc7b5,27,female,1,1,14,Clear_not_profit_side,3,0,0,0,left,right,right,1,2,1,0.131,6,10,139,278,0
5aaa7bde56c51000018cc7b5,27,female,1,1,15,Clear_not_profit_side,3,0,0,0,left,right,right,1,2,1,0.135,6,10,139,278,0
5aaa7bde56c51000018cc7b5,27,female,1,1,20,Clear_not_profit_side,3,0,0,0,left,right,right,1,2,1,0.14300000000000002,6,10,139,278,0
5aaa7bde56c51000018cc7b5,27,female,1,1,23,Clear_not_profit_side,3,0,0,0,left,right,right,1,2,1,0.109,6,10,139,278,0
5aaa7bde56c51000018cc7b5,27,female,1,1,24,Clear_not_profit_side,3,0,0,0,left,right,right,1,2,1,0.14400000000000002,6,10,139,278,0
5aaa7bde56c51000018cc7b5,27,female,1,1,26,Clear_not_profit_side,3,0,0,0,left,right,right,1,2,1,0.153,6,10,139,278,0
5aaa7bde56c51000018cc7b5,27,female,1,1,32,Clear_not_profit_side,3,0,0,0,left,right,right,1,2,1,0.129,6,10,139,278,0
5aaa7bde56c51000018cc7b5,27,female,1,1,34,Clear_not_profit_side,3,0,0,0,left,right,right,1,2,1,0.099,6,10,139,278,0
5aaa7bde56c51000018cc7b5,27,female,1,1,40,Clear_not_profit_side,3,0,0,0,left,right,right,1,2,1,0.10099999999999999,6,10,139,278,0
5aaa7bde56c51000018cc7b5,27,female,1,1,41,Clear_not_profit_side,3,0,0,0,left,right,right,1,2,1,0.11800000000000001,6,10,139,278,0
5aaa7bde56c51000018cc7b5,27,female,1,1,42,Clear_not_profit_side,3,0,0,0,left,right,right,1,2,1,0.109,6,10,139,278,0
5aaa7bde56c51000018cc7b5,27,female,1,1,47,Clear_not_profit_side,3,0,0,0,left,right,right,1,2,1,0.094,6,10,139,278,0
5aaa7bde56c51000018cc7b5,27,female,1,1,48,Clear_not_profit_side,3,0,0,0,left,right,right,1,2,1,0.162,6,10,139,278,0
5aaa7bde56c51000018cc7b5,27,female,1,1,51,Clear_not_profit_side,3,0,0,0,left,right,right,1,2,1,0.151,6,10,139,278,0
5aaa7bde56c51000018cc7b5,27,female,1,1,52,Clear_not_profit_side,3,0,0,0,left,right,right,1,2,1,0.156,6,10,139,278,0
5aaa7bde56c51000018cc7b5,27,female,1,1,55,Clear_not_profit_side,3,0,0,0,left,right,right,1,2,1,0.10800000000000001,6,10,139,278,0
5aaa7bde56c51000018cc7b5,27,female,1,1,59,Clear_not_profit_side,3,0,0,0,left,right,right,1,2,1,0.132,6,10,139,278,0
5aaa7bde56c51000018cc7b5,27,female,1,1,60,Clear_not_profit_side,3,0,0,0,left,right,right,1,2,1,0.15,6,10,139,278,0
5aaa7bde56c51000018cc7b5,27,female,1,1,66,Clear_not_profit_side,3,0,0,0,left,right,right,1,2,1,0.106,6,10,139,278,0
5aaa7bde56c51000018cc7b5,27,female,1,1,73,Clear_not_profit_side,3,0,0,0,left,right,right,1,2,1,0.11699999999999999,6,10,139,278,0
5aaa7bde56c51000018cc7b5,27,female,1,1,76,Clear_not_profit_side,3,0,0,0,left,right,right,1,2,1,0.091,6,10,139,278,0
5aaa7bde56c51000018cc7b5,27,female,1,1,79,Clear_not_profit_side,3,0,0,0,left,right,right,1,2,1,0.096,6,10,139,278,0
5aaa7bde56c51000018cc7b5,27,female,1,1,80,Clear_not_profit_side,3,0,0,0,left,right,right,1,2,1,0.10800000000000001,6,10,139,278,0
5aaa7bde56c51000018cc7b5,27,female,1,1,82,Clear_not_profit_side,3,0,0,0,left,right,right,1,2,1,0.109,6,10,139,278,0
5aaa7bde56c51000018cc7b5,27,female,1,1,85,Clear_not_profit_side,3,0,0,0,left,right,right,1,2,1,0.114,6,10,139,278,0
5aaa7bde56c51000018cc7b5,27,female,1,1,87,Clear_not_profit_side,3,0,0,0,left,right,right,1,2,1,0.079,6,10,139,278,0
5aaa7bde56c51000018cc7b5,27,female,1,1,89,Clear_not_profit_side,3,0,0,0,left,right,right,1,2,1,0.13,6,10,139,278,0
5aaa7bde56c51000018cc7b5,27,female,1,1,92,Clear_not_profit_side,3,0,0,0,left,right,right,1,2,1,0.125,6,10,139,278,0
5aaa7bde56c51000018cc7b5,27,female,1,1,94,Clear_not_profit_side,3,0,0,0,left,right,right,1,2,1,0.159,6,10,139,278,0
5aaa7bde56c51000018cc7b5,27,female,1,1,96,Clear_not_profit_side,3,0,0,0,left,right,right,1,2,1,0.08800000000000001,6,10,139,278,0
5aaa7bde56c51000018cc7b5,27,female,1,1,100,Clear_not_profit_side,3,0,0,0,left,right,right,1,2,1,0.158,6,10,139,278,0
5aaa7bde56c51000018cc7b5,27,female,1,2,4,Clear_not_profit_side,3,0,0,0,left,right,right,1,2,1,0.096,4,10,139,278,0
5aaa7bde56c51000018cc7b5,27,female,1,2,8,Clear_not_profit_side,3,0,0,0,left,right,right,1,2,1,0.084,4,10,139,278,0
5aaa7bde56c51000018cc7b5,27,female,1,2,10,Clear_not_profit_side,3,0,0,0,left,right,right,1,2,1,0.086,4,10,139,278,0
5aaa7bde56c51000018cc7b5,27,female,1,2,13,Clear_not_profit_side,3,0,0,0,left,right,right,1,2,1,0.11599999999999999,4,10,139,278,0
5aaa7bde56c51000018cc7b5,27,female,1,2,15,Clear_not_profit_side,3,0,0,0,left,right,right,1,2,1,0.085,4,10,139,278,0
5aaa7bde56c51000018cc7b5,27,female,1,2,20,Clear_not_profit_side,3,0,0,0,left,right,right,1,2,1,0.098,4,10,139,278,0
5aaa7bde56c51000018cc7b5,27,female,1,2,22,Clear_not_profit_side,3,0,0,0,left,right,right,1,2,1,0.08800000000000001,4,10,139,278,0
5aaa7bde56c51000018cc7b5,27,female,1,2,23,Clear_not_profit_side,3,0,0,0,left,right,right,1,2,1,0.158,4,10,139,278,0
5aaa7bde56c51000018cc7b5,27,female,1,2,26,Clear_not_profit_side,3,0,0,0,left,right,right,1,2,1,0.091,4,10,139,278,0
5aaa7bde56c51000018cc7b5,27,female,1,2,31,Clear_not_profit_side,3,0,0,0,left,right,right,1,2,1,0.084,4,10,139,278,0
5aaa7bde56c51000018cc7b5,27,female,1,2,33,Clear_not_profit_side,3,0,0,0,left,right,right,1,2,1,0.113,4,10,139,278,0
5aaa7bde56c51000018cc7b5,27,female,1,2,35,Clear_not_profit_side,3,0,0,0,left,right,right,1,2,1,0.1,4,10,139,278,0
5aaa7bde56c51000018cc7b5,27,female,1,2,36,Clear_not_profit_side,3,0,0,0,left,right,right,1,2,1,0.083,4,10,139,278,0
5aaa7bde56c51000018cc7b5,27,female,1,2,39,Clear_not_profit_side,3,0,0,0,left,right,right,1,2,1,0.094,4,10,139,278,0
5aaa7bde56c51000018cc7b5,27,female,1,2,42,Clear_not_profit_side,3,0,0,0,left,right,right,1,2,1,0.22399999999999998,4,10,139,278,0
5aaa7bde56c51000018cc7b5,27,female,1,2,45,Clear_not_profit_side,3,0,0,0,left,right,right,1,2,1,0.083,4,10,139,278,0
5aaa7bde56c51000018cc7b5,27,female,1,2,50,Clear_not_profit_side,3,0,0,0,left,right,right,1,2,1,0.133,4,10,139,278,0
5aaa7bde56c51000018cc7b5,27,female,1,2,56,Clear_not_profit_side,3,0,0,0,left,right,right,1,2,1,0.084,4,10,139,278,0
5aaa7bde56c51000018cc7b5,27,female,1,2,61,Clear_not_profit_side,3,0,0,0,left,right,right,1,2,1,0.087,4,10,139,278,0
5aaa7bde56c51000018cc7b5,27,female,1,2,63,Clear_not_profit_side,3,0,0,0,left,right,right,1,2,1,0.102,4,10,139,278,0
5aaa7bde56c51000018cc7b5,27,female,1,2,67,Clear_not_profit_side,3,0,0,0,left,right,right,1,2,1,0.295,4,10,139,278,0
5aaa7bde56c51000018cc7b5,27,female,1,2,70,Clear_not_profit_side,3,0,0,0,left,right,right,1,2,1,0.092,4,10,139,278,0
5aaa7bde56c51000018cc7b5,27,female,1,2,71,Clear_not_profit_side,3,0,0,0,left,right,right,1,2,1,0.083,4,10,139,278,0
5aaa7bde56c51000018cc7b5,27,female,1,2,73,Clear_not_profit_side,3,0,0,0,left,right,right,1,2,1,0.08800000000000001,4,10,139,278,0
5aaa7bde56c51000018cc7b5,27,female,1,2,76,Clear_not_profit_side,3,0,0,0,left,right,right,1,2,1,0.084,4,10,139,278,0
5aaa7bde56c51000018cc7b5,27,female,1,2,81,Clear_not_profit_side,3,0,0,0,left,right,right,1,2,1,0.18600000000000003,4,10,139,278,0
5aaa7bde56c51000018cc7b5,27,female,1,2,83,Clear_not_profit_side,3,0,0,0,left,right,right,1,2,1,0.084,4,10,139,278,0
5aaa7bde56c51000018cc7b5,27,female,1,2,84,Clear_not_profit_side,3,0,0,0,left,right,right,1,2,1,0.099,4,10,139,278,0
5aaa7bde56c51000018cc7b5,27,female,1,2,85,Clear_not_profit_side,3,0,0,0,left,right,right,1,2,1,0.17,4,10,139,278,0
5aaa7bde56c51000018cc7b5,27,female,1,2,88,Clear_not_profit_side,3,0,0,0,left,right,right,1,2,1,0.09,4,10,139,278,0
5aaa7bde56c51000018cc7b5,27,female,1,2,90,Clear_not_profit_side,3,0,0,0,left,right,right,1,2,1,0.083,4,10,139,278,0
5aaa7bde56c51000018cc7b5,27,female,1,2,94,Clear_not_profit_side,3,0,0,0,left,right,right,1,2,1,0.107,4,10,139,278,0
5aaa7bde56c51000018cc7b5,27,female,1,2,96,Clear_not_profit_side,3,0,0,0,left,right,right,1,2,1,0.083,4,10,139,278,0
5aaa7bde56c51000018cc7b5,27,female,1,2,97,Clear_not_profit_side,3,0,0,0,left,right,right,1,2,1,0.083,4,10,139,278,0
5b2973a08c745200013b84ae,52,female,1,1,8,Clear_not_profit_side,3,0,0,0,left,right,right,1,2,1,0.20199999999999999,4,11,139,281,0
5b2973a08c745200013b84ae,52,female,1,1,10,Clear_not_profit_side,3,0,0,0,left,right,right,1,2,1,0.188,4,11,139,281,0
5b2973a08c745200013b84ae,52,female,1,1,20,Clear_not_profit_side,3,0,0,0,left,right,right,1,2,1,0.2,4,11,139,281,0
5b2973a08c745200013b84ae,52,female,1,1,21,Clear_not_profit_side,3,0,0,0,left,right,right,1,2,1,0.215,4,11,139,281,0
5b2973a08c745200013b84ae,52,female,1,1,22,Clear_not_profit_side,3,0,0,0,left,right,right,1,2,1,0.182,4,11,139,281,0
5b2973a08c745200013b84ae,52,female,1,1,25,Clear_not_profit_side,3,0,0,0,left,right,right,1,2,1,0.20600000000000002,4,11,139,281,0
5b2973a08c745200013b84ae,52,female,1,1,28,Clear_not_profit_side,3,0,0,0,left,right,right,1,2,1,0.19399999999999998,4,11,139,281,0
5b2973a08c745200013b84ae,52,female,1,1,33,Clear_not_profit_side,3,0,0,0,left,right,right,1,2,1,0.16699999999999998,4,11,139,281,0
5b2973a08c745200013b84ae,52,female,1,1,36,Clear_not_profit_side,3,0,0,0,left,right,right,1,2,1,0.179,4,11,139,281,0
5b2973a08c745200013b84ae,52,female,1,1,40,Clear_not_profit_side,3,0,0,0,left,right,right,1,2,1,0.18600000000000003,4,11,139,281,0
5b2973a08c745200013b84ae,52,female,1,1,42,Clear_not_profit_side,3,0,0,0,left,right,right,1,2,1,0.182,4,11,139,281,0
5b2973a08c745200013b84ae,52,female,1,1,44,Clear_not_profit_side,3,0,0,0,left,right,right,1,2,1,0.179,4,11,139,281,0
5b2973a08c745200013b84ae,52,female,1,1,46,Clear_not_profit_side,3,0,0,0,left,right,right,1,2,1,0.15,4,11,139,281,0
5b2973a08c745200013b84ae,52,female,1,1,48,Clear_not_profit_side,3,0,0,0,left,right,right,1,2,1,0.171,4,11,139,281,0
5b2973a08c745200013b84ae,52,female,1,1,52,Clear_not_profit_side,3,0,0,0,left,right,right,1,2,1,0.171,4,11,139,281,0
5b2973a08c745200013b84ae,52,female,1,1,54,Clear_not_profit_side,3,0,0,0,left,right,right,1,2,1,0.184,4,11,139,281,0
5b2973a08c745200013b84ae,52,female,1,1,55,Clear_not_profit_side,3,0,0,0,left,right,right,1,2,1,0.134,4,11,139,281,0
5b2973a08c745200013b84ae,52,female,1,1,56,Clear_not_profit_side,3,0,0,0,left,right,right,1,2,1,0.21,4,11,139,281,0
5b2973a08c745200013b84ae,52,female,1,1,61,Clear_not_profit_side,3,0,0,0,left,right,right,1,2,1,0.161,4,11,139,281,0
5b2973a08c745200013b84ae,52,female,1,1,66,Clear_not_profit_side,3,0,0,0,left,right,right,1,2,1,0.076,4,11,139,281,0
5b2973a08c745200013b84ae,52,female,1,1,69,Clear_not_profit_side,3,0,0,0,left,right,right,1,2,1,0.159,4,11,139,281,0
5b2973a08c745200013b84ae,52,female,1,1,77,Clear_not_profit_side,3,0,0,0,left,right,right,1,2,1,0.165,4,11,139,281,0
5b2973a08c745200013b84ae,52,female,1,1,78,Clear_not_profit_side,3,0,0,0,left,right,right,1,2,1,0.147,4,11,139,281,0
5b2973a08c745200013b84ae,52,female,1,1,79,Clear_not_profit_side,3,0,0,0,left,right,right,1,2,1,0.16399999999999998,4,11,139,281,0
5b2973a08c745200013b84ae,52,female,1,1,80,Clear_not_profit_side,3,0,0,0,left,right,right,1,2,1,0.14400000000000002,4,11,139,281,0
5b2973a08c745200013b84ae,52,female,1,1,84,Clear_not_profit_side,3,0,0,0,left,right,right,1,2,1,0.17300000000000001,4,11,139,281,0
5b2973a08c745200013b84ae,52,female,1,1,85,Clear_not_profit_side,3,0,0,0,left,right,right,1,2,1,0.14800000000000002,4,11,139,281,0
5b2973a08c745200013b84ae,52,female,1,1,91,Clear_not_profit_side,3,0,0,0,left,right,right,1,2,1,0.146,4,11,139,281,0
5b2973a08c745200013b84ae,52,female,1,1,93,Clear_not_profit_side,3,0,0,0,left,right,right,1,2,1,0.132,4,11,139,281,0
5b2973a08c745200013b84ae,52,female,1,1,95,Clear_not_profit_side,3,0,0,0,left,right,right,1,2,1,0.127,4,11,139,281,0
5b2973a08c745200013b84ae,52,female,1,1,96,Clear_not_profit_side,3,0,0,0,left,right,right,1,2,1,0.22,4,11,139,281,0
5b2973a08c745200013b84ae,52,female,1,1,97,Clear_not_profit_side,3,0,0,0,left,right,right,1,2,1,0.124,4,11,139,281,0
5b2973a08c745200013b84ae,52,female,1,1,99,Clear_not_profit_side,3,0,0,0,left,right,right,1,2,1,0.081,4,11,139,281,0
5b2973a08c745200013b84ae,52,female,1,1,100,Clear_not_profit_side,3,0,0,0,left,right,right,1,2,1,0.12300000000000001,4,11,139,281,0
5b2973a08c745200013b84ae,52,female,1,2,2,Clear_not_profit_side,3,0,0,0,left,right,right,1,2,1,0.165,7,11,142,281,0
5b2973a08c745200013b84ae,52,female,1,2,3,Clear_not_profit_side,3,0,0,0,left,right,right,1,2,1,0.14800000000000002,7,11,142,281,0
5b2973a08c745200013b84ae,52,female,1,2,7,Clear_not_profit_side,3,0,0,0,left,right,right,1,2,1,0.141,7,11,142,281,0
5b2973a08c745200013b84ae,52,female,1,2,8,Clear_not_profit_side,3,0,0,0,left,right,right,1,2,1,0.136,7,11,142,281,0
5b2973a08c745200013b84ae,52,female,1,2,9,Clear_not_profit_side,3,0,0,0,left,right,right,1,2,1,0.154,7,11,142,281,0
5b2973a08c745200013b84ae,52,female,1,2,11,Clear_not_profit_side,3,0,0,0,left,right,right,1,2,1,0.135,7,11,142,281,0
5b2973a08c745200013b84ae,52,female,1,2,12,Clear_not_profit_side,3,0,0,0,left,right,right,1,2,1,0.162,7,11,142,281,0
5b2973a08c745200013b84ae,52,female,1,2,13,Clear_not_profit_side,3,0,0,0,left,right,right,1,2,1,0.159,7,11,142,281,0
5b2973a08c745200013b84ae,52,female,1,2,15,Clear_not_profit_side,3,0,0,0,left,right,right,1,2,1,0.159,7,11,142,281,0
5b2973a08c745200013b84ae,52,female,1,2,21,Clear_not_profit_side,3,0,0,0,left,right,right,1,2,1,0.136,7,11,142,281,0
5b2973a08c745200013b84ae,52,female,1,2,23,Clear_not_profit_side,3,0,0,0,left,right,right,1,2,1,0.139,7,11,142,281,0
5b2973a08c745200013b84ae,52,female,1,2,25,Clear_not_profit_side,3,0,0,0,left,right,right,1,2,1,0.11,7,11,142,281,0
5b2973a08c745200013b84ae,52,female,1,2,26,Clear_not_profit_side,3,0,0,0,left,right,right,1,2,1,0.10800000000000001,7,11,142,281,0
5b2973a08c745200013b84ae,52,female,1,2,28,Clear_not_profit_side,3,0,0,0,left,right,right,1,2,1,0.14,7,11,142,281,0
5b2973a08c745200013b84ae,52,female,1,2,29,Clear_not_profit_side,3,0,0,0,left,right,right,1,2,1,0.12,7,11,142,281,0
5b2973a08c745200013b84ae,52,female,1,2,30,Clear_not_profit_side,3,0,0,0,left,right,right,1,2,1,0.121,7,11,142,281,0
5b2973a08c745200013b84ae,52,female,1,2,34,Clear_not_profit_side,3,0,0,0,left,right,right,1,2,1,0.152,7,11,142,281,0
5b2973a08c745200013b84ae,52,female,1,2,39,Clear_not_profit_side,3,0,0,0,left,right,right,1,2,1,0.066,7,11,142,281,0
5b2973a08c745200013b84ae,52,female,1,2,42,Clear_not_profit_side,3,0,0,0,left,right,right,1,2,1,0.11599999999999999,7,11,142,281,0
5b2973a08c745200013b84ae,52,female,1,2,43,Clear_not_profit_side,3,0,0,0,left,right,right,1,2,1,0.129,7,11,142,281,0
5b2973a08c745200013b84ae,52,female,1,2,46,Clear_not_profit_side,3,0,0,0,left,right,right,1,2,1,0.223,7,11,142,281,0
5b2973a08c745200013b84ae,52,female,1,2,53,Clear_not_profit_side,3,0,0,0,left,right,right,1,2,1,0.067,7,11,142,281,0
5b2973a08c745200013b84ae,52,female,1,2,55,Clear_not_profit_side,3,0,0,0,left,right,right,1,2,1,0.10800000000000001,7,11,142,281,0
5b2973a08c745200013b84ae,52,female,1,2,58,Clear_not_profit_side,3,0,0,0,left,right,right,1,2,1,0.133,7,11,142,281,0
5b2973a08c745200013b84ae,52,female,1,2,66,Clear_not_profit_side,3,0,0,0,left,right,right,1,2,1,0.10800000000000001,7,11,142,281,0
5b2973a08c745200013b84ae,52,female,1,2,70,Clear_not_profit_side,3,0,0,0,left,right,right,1,2,1,0.052000000000000005,7,11,142,281,0
5b2973a08c745200013b84ae,52,female,1,2,75,Clear_not_profit_side,3,0,0,0,left,right,right,1,2,1,0.16399999999999998,7,11,142,281,0
5b2973a08c745200013b84ae,52,female,1,2,76,Clear_not_profit_side,3,0,0,0,left,right,right,1,2,1,0.12,7,11,142,281,0
5b2973a08c745200013b84ae,52,female,1,2,83,Clear_not_profit_side,3,0,0,0,left,right,right,1,2,1,0.14300000000000002,7,11,142,281,0
5b2973a08c745200013b84ae,52,female,1,2,91,Clear_not_profit_side,3,0,0,0,left,right,right,1,2,1,0.07400000000000001,7,11,142,281,0
5b2973a08c745200013b84ae,52,female,1,2,92,Clear_not_profit_side,3,0,0,0,left,right,right,1,2,1,0.042,7,11,142,281,0
5b2973a08c745200013b84ae,52,female,1,2,93,Clear_not_profit_side,3,0,0,0,left,right,right,1,2,1,0.061,7,11,142,281,0
5b2973a08c745200013b84ae,52,female,1,2,94,Clear_not_profit_side,3,0,0,0,left,right,right,1,2,1,0.11599999999999999,7,11,142,281,0
5b2973a08c745200013b84ae,52,female,1,2,97,Clear_not_profit_side,3,0,0,0,left,right,right,1,2,1,0.17,7,11,142,281,0
5e68ff434db49c01d7dbedd2,27,male,1,1,1,Clear_not_profit_side,3,0,0,0,right,left,left,1,2,1,0.225,6,15,147,292,0
5e68ff434db49c01d7dbedd2,27,male,1,1,2,Clear_not_profit_side,3,0,0,0,right,left,left,1,2,1,0.521,6,15,147,292,0
5e68ff434db49c01d7dbedd2,27,male,1,1,5,Clear_not_profit_side,3,0,0,0,right,left,right,2,1,0,0.161,6,15,147,292,1
5e68ff434db49c01d7dbedd2,27,male,1,1,8,Clear_not_profit_side,3,0,0,0,right,left,left,1,2,1,0.098,6,15,147,292,0
5e68ff434db49c01d7dbedd2,27,male,1,1,9,Clear_not_profit_side,3,0,0,0,right,left,left,1,2,1,0.07400000000000001,6,15,147,292,0
5e68ff434db49c01d7dbedd2,27,male,1,1,11,Clear_not_profit_side,3,0,0,0,right,left,left,1,2,1,0.087,6,15,147,292,0
5e68ff434db49c01d7dbedd2,27,male,1,1,16,Clear_not_profit_side,3,0,0,0,right,left,left,1,2,1,0.077,6,15,147,292,0
5e68ff434db49c01d7dbedd2,27,male,1,1,17,Clear_not_profit_side,3,0,0,0,right,left,left,1,2,1,0.073,6,15,147,292,0
5e68ff434db49c01d7dbedd2,27,male,1,1,19,Clear_not_profit_side,3,0,0,0,right,left,left,1,2,1,0.052000000000000005,6,15,147,292,0
5e68ff434db49c01d7dbedd2,27,male,1,1,21,Clear_not_profit_side,3,0,0,0,right,left,left,1,2,1,0.05,6,15,147,292,0
5e68ff434db49c01d7dbedd2,27,male,1,1,26,Clear_not_profit_side,3,0,0,0,right,left,left,1,2,1,0.052000000000000005,6,15,147,292,0
5e68ff434db49c01d7dbedd2,27,male,1,1,28,Clear_not_profit_side,3,0,0,0,right,left,left,1,2,1,0.071,6,15,147,292,0
5e68ff434db49c01d7dbedd2,27,male,1,1,29,Clear_not_profit_side,3,0,0,0,right,left,left,1,2,1,0.053,6,15,147,292,0
5e68ff434db49c01d7dbedd2,27,male,1,1,30,Clear_not_profit_side,3,0,0,0,right,left,left,1,2,1,0.053,6,15,147,292,0
5e68ff434db49c01d7dbedd2,27,male,1,1,31,Clear_not_profit_side,3,0,0,0,right,left,left,1,2,1,0.048,6,15,147,292,0
5e68ff434db49c01d7dbedd2,27,male,1,1,42,Clear_not_profit_side,3,0,0,0,right,left,left,1,2,1,0.071,6,15,147,292,0
5e68ff434db49c01d7dbedd2,27,male,1,1,50,Clear_not_profit_side,3,0,0,0,right,left,left,1,2,1,0.036000000000000004,6,15,147,292,0
5e68ff434db49c01d7dbedd2,27,male,1,1,54,Clear_not_profit_side,3,0,0,0,right,left,left,1,2,1,0.035,6,15,147,292,0
5e68ff434db49c01d7dbedd2,27,male,1,1,61,Clear_not_profit_side,3,0,0,0,right,left,left,1,2,1,0.035,6,15,147,292,0
5e68ff434db49c01d7dbedd2,27,male,1,1,62,Clear_not_profit_side,3,0,0,0,right,left,left,1,2,1,0.05,6,15,147,292,0
5e68ff434db49c01d7dbedd2,27,male,1,1,69,Clear_not_profit_side,3,0,0,0,right,left,left,1,2,1,0.040999999999999995,6,15,147,292,0
5e68ff434db49c01d7dbedd2,27,male,1,1,71,Clear_not_profit_side,3,0,0,0,right,left,left,1,2,1,0.055999999999999994,6,15,147,292,0
5e68ff434db49c01d7dbedd2,27,male,1,1,79,Clear_not_profit_side,3,0,0,0,right,left,left,1,2,1,0.042,6,15,147,292,0
5e68ff434db49c01d7dbedd2,27,male,1,1,80,Clear_not_profit_side,3,0,0,0,right,left,left,1,2,1,0.054000000000000006,6,15,147,292,0
5e68ff434db49c01d7dbedd2,27,male,1,1,82,Clear_not_profit_side,3,0,0,0,right,left,left,1,2,1,0.04,6,15,147,292,0
5e68ff434db49c01d7dbedd2,27,male,1,1,83,Clear_not_profit_side,3,0,0,0,right,left,left,1,2,1,0.055,6,15,147,292,0
5e68ff434db49c01d7dbedd2,27,male,1,1,84,Clear_not_profit_side,3,0,0,0,right,left,left,1,2,1,0.05,6,15,147,292,0
5e68ff434db49c01d7dbedd2,27,male,1,1,86,Clear_not_profit_side,3,0,0,0,right,left,left,1,2,1,0.032,6,15,147,292,0
5e68ff434db49c01d7dbedd2,27,male,1,1,88,Clear_not_profit_side,3,0,0,0,right,left,left,1,2,1,0.053,6,15,147,292,0
5e68ff434db49c01d7dbedd2,27,male,1,1,93,Clear_not_profit_side,3,0,0,0,right,left,left,1,2,1,0.044000000000000004,6,15,147,292,0
5e68ff434db49c01d7dbedd2,27,male,1,1,94,Clear_not_profit_side,3,0,0,0,right,left,left,1,2,1,0.11800000000000001,6,15,147,292,0
5e68ff434db49c01d7dbedd2,27,male,1,1,95,Clear_not_profit_side,3,0,0,0,right,left,left,1,2,1,0.133,6,15,147,292,0
5e68ff434db49c01d7dbedd2,27,male,1,1,96,Clear_not_profit_side,3,0,0,0,right,left,left,1,2,1,0.113,6,15,147,292,0
5e68ff434db49c01d7dbedd2,27,male,1,1,99,Clear_not_profit_side,3,0,0,0,right,left,left,1,2,1,0.071,6,15,147,292,0
5e68ff434db49c01d7dbedd2,27,male,1,2,1,Clear_not_profit_side,3,0,0,0,right,left,left,1,2,1,0.051,9,15,145,292,0
5e68ff434db49c01d7dbedd2,27,male,1,2,4,Clear_not_profit_side,3,0,0,0,right,left,left,1,2,1,0.047,9,15,145,292,0
5e68ff434db49c01d7dbedd2,27,male,1,2,6,Clear_not_profit_side,3,0,0,0,right,left,left,1,2,1,0.039,9,15,145,292,0
5e68ff434db49c01d7dbedd2,27,male,1,2,9,Clear_not_profit_side,3,0,0,0,right,left,left,1,2,1,0.051,9,15,145,292,0
5e68ff434db49c01d7dbedd2,27,male,1,2,11,Clear_not_profit_side,3,0,0,0,right,left,left,1,2,1,0.038,9,15,145,292,0
5e68ff434db49c01d7dbedd2,27,male,1,2,12,Clear_not_profit_side,3,0,0,0,right,left,left,1,2,1,0.055999999999999994,9,15,145,292,0
5e68ff434db49c01d7dbedd2,27,male,1,2,13,Clear_not_profit_side,3,0,0,0,right,left,left,1,2,1,0.07400000000000001,9,15,145,292,0
5e68ff434db49c01d7dbedd2,27,male,1,2,15,Clear_not_profit_side,3,0,0,0,right,left,left,1,2,1,0.149,9,15,145,292,0
5e68ff434db49c01d7dbedd2,27,male,1,2,17,Clear_not_profit_side,3,0,0,0,right,left,left,1,2,1,0.371,9,15,145,292,0
5e68ff434db49c01d7dbedd2,27,male,1,2,18,Clear_not_profit_side,3,0,0,0,right,left,left,1,2,1,0.105,9,15,145,292,0
5e68ff434db49c01d7dbedd2,27,male,1,2,19,Clear_not_profit_side,3,0,0,0,right,left,left,1,2,1,0.046,9,15,145,292,0
5e68ff434db49c01d7dbedd2,27,male,1,2,20,Clear_not_profit_side,3,0,0,0,right,left,left,1,2,1,0.053,9,15,145,292,0
5e68ff434db49c01d7dbedd2,27,male,1,2,24,Clear_not_profit_side,3,0,0,0,right,left,left,1,2,1,0.033,9,15,145,292,0
5e68ff434db49c01d7dbedd2,27,male,1,2,26,Clear_not_profit_side,3,0,0,0,right,left,left,1,2,1,0.051,9,15,145,292,0
5e68ff434db49c01d7dbedd2,27,male,1,2,28,Clear_not_profit_side,3,0,0,0,right,left,left,1,2,1,0.03,9,15,145,292,0
5e68ff434db49c01d7dbedd2,27,male,1,2,30,Clear_not_profit_side,3,0,0,0,right,left,left,1,2,1,0.083,9,15,145,292,0
5e68ff434db49c01d7dbedd2,27,male,1,2,32,Clear_not_profit_side,3,0,0,0,right,left,left,1,2,1,0.054000000000000006,9,15,145,292,0
5e68ff434db49c01d7dbedd2,27,male,1,2,33,Clear_not_profit_side,3,0,0,0,right,left,left,1,2,1,0.05,9,15,145,292,0
5e68ff434db49c01d7dbedd2,27,male,1,2,41,Clear_not_profit_side,3,0,0,0,right,left,left,1,2,1,0.078,9,15,145,292,0
5e68ff434db49c01d7dbedd2,27,male,1,2,42,Clear_not_profit_side,3,0,0,0,right,left,left,1,2,1,0.037000000000000005,9,15,145,292,0
5e68ff434db49c01d7dbedd2,27,male,1,2,59,Clear_not_profit_side,3,0,0,0,right,left,right,2,1,0,0.076,9,15,145,292,1
5e68ff434db49c01d7dbedd2,27,male,1,2,66,Clear_not_profit_side,3,0,0,0,right,left,left,1,2,1,0.064,9,15,145,292,0
5e68ff434db49c01d7dbedd2,27,male,1,2,69,Clear_not_profit_side,3,0,0,0,right,left,left,1,2,1,0.059000000000000004,9,15,145,292,0
5e68ff434db49c01d7dbedd2,27,male,1,2,71,Clear_not_profit_side,3,0,0,0,right,left,left,1,2,1,0.053,9,15,145,292,0
5e68ff434db49c01d7dbedd2,27,male,1,2,75,Clear_not_profit_side,3,0,0,0,right,left,left,1,2,1,0.128,9,15,145,292,0
5e68ff434db49c01d7dbedd2,27,male,1,2,76,Clear_not_profit_side,3,0,0,0,right,left,left,1,2,1,0.085,9,15,145,292,0
5e68ff434db49c01d7dbedd2,27,male,1,2,79,Clear_not_profit_side,3,0,0,0,right,left,left,1,2,1,0.14400000000000002,9,15,145,292,0
5e68ff434db49c01d7dbedd2,27,male,1,2,84,Clear_not_profit_side,3,0,0,0,right,left,left,1,2,1,0.087,9,15,145,292,0
5e68ff434db49c01d7dbedd2,27,male,1,2,86,Clear_not_profit_side,3,0,0,0,right,left,left,1,2,1,0.069,9,15,145,292,0
5e68ff434db49c01d7dbedd2,27,male,1,2,87,Clear_not_profit_side,3,0,0,0,right,left,left,1,2,1,0.065,9,15,145,292,0
5e68ff434db49c01d7dbedd2,27,male,1,2,92,Clear_not_profit_side,3,0,0,0,right,left,left,1,2,1,0.069,9,15,145,292,0
5e68ff434db49c01d7dbedd2,27,male,1,2,93,Clear_not_profit_side,3,0,0,0,right,left,left,1,2,1,0.062,9,15,145,292,0
5e68ff434db49c01d7dbedd2,27,male,1,2,100,Clear_not_profit_side,3,0,0,0,right,left,left,1,2,1,0.057,9,15,145,292,0
5e836b26ac330b064f3c861e,24,female,1,1,5,Clear_not_profit_side,1,90,1,20,right,left,left,1,0,1,0.235,6,13,797,1479,0
5e836b26ac330b064f3c861e,24,female,1,1,9,Clear_not_profit_side,1,90,1,20,right,left,left,1,0,1,0.204,6,13,797,1479,0
5e836b26ac330b064f3c861e,24,female,1,1,11,Clear_not_profit_side,1,90,1,20,right,left,left,1,0,1,0.222,6,13,797,1479,0
5e836b26ac330b064f3c861e,24,female,1,1,12,Clear_not_profit_side,1,90,1,20,right,left,left,1,0,1,0.183,6,13,797,1479,0
5e836b26ac330b064f3c861e,24,female,1,1,13,Clear_not_profit_side,1,90,1,20,right,left,left,1,0,1,0.14800000000000002,6,13,797,1479,0
5e836b26ac330b064f3c861e,24,female,1,1,14,Clear_not_profit_side,1,90,1,20,right,left,left,1,0,1,0.145,6,13,797,1479,0
5e836b26ac330b064f3c861e,24,female,1,1,15,Clear_not_profit_side,1,90,1,20,right,left,left,1,0,1,0.159,6,13,797,1479,0
5e836b26ac330b064f3c861e,24,female,1,1,16,Clear_not_profit_side,1,90,1,20,right,left,left,1,0,1,0.214,6,13,797,1479,0
5e836b26ac330b064f3c861e,24,female,1,1,18,Clear_not_profit_side,1,90,1,20,right,left,left,1,0,1,0.218,6,13,797,1479,0
5e836b26ac330b064f3c861e,24,female,1,1,20,Clear_not_profit_side,1,90,1,20,right,left,left,1,0,1,0.17600000000000002,6,13,797,1479,0
5e836b26ac330b064f3c861e,24,female,1,1,21,Clear_not_profit_side,1,90,1,20,right,left,left,1,0,1,0.139,6,13,797,1479,0
5e836b26ac330b064f3c861e,24,female,1,1,24,Clear_not_profit_side,1,90,1,20,right,left,left,1,0,1,0.18100000000000002,6,13,797,1479,0
5e836b26ac330b064f3c861e,24,female,1,1,32,Clear_not_profit_side,1,90,1,20,right,left,left,1,0,1,0.122,6,13,797,1479,0
5e836b26ac330b064f3c861e,24,female,1,1,34,Clear_not_profit_side,1,90,1,20,right,left,left,1,0,1,0.14800000000000002,6,13,797,1479,0
5e836b26ac330b064f3c861e,24,female,1,1,36,Clear_not_profit_side,1,90,1,20,right,left,left,1,0,1,0.168,6,13,797,1479,0
5e836b26ac330b064f3c861e,24,female,1,1,37,Clear_not_profit_side,1,90,1,20,right,left,left,1,0,1,0.12300000000000001,6,13,797,1479,0
5e836b26ac330b064f3c861e,24,female,1,1,41,Clear_not_profit_side,1,90,1,20,right,left,left,1,0,1,0.18899999999999997,6,13,797,1479,0
5e836b26ac330b064f3c861e,24,female,1,1,43,Clear_not_profit_side,1,90,1,20,right,left,left,1,0,1,0.11900000000000001,6,13,797,1479,0
5e836b26ac330b064f3c861e,24,female,1,1,46,Clear_not_profit_side,1,90,1,20,right,left,left,1,0,1,0.185,6,13,797,1479,0
5e836b26ac330b064f3c861e,24,female,1,1,49,Clear_not_profit_side,1,90,1,20,right,left,left,1,0,1,0.165,6,13,797,1479,0
5e836b26ac330b064f3c861e,24,female,1,1,51,Clear_not_profit_side,1,90,1,20,right,left,left,1,0,1,0.168,6,13,797,1479,0
5e836b26ac330b064f3c861e,24,female,1,1,57,Clear_not_profit_side,1,90,1,20,right,left,left,1,0,1,0.19399999999999998,6,13,797,1479,0
5e836b26ac330b064f3c861e,24,female,1,1,58,Clear_not_profit_side,1,90,1,20,right,left,left,1,0,1,0.14400000000000002,6,13,797,1479,0
5e836b26ac330b064f3c861e,24,female,1,1,61,Clear_not_profit_side,1,90,0,0,right,left,left,1,20,1,0.19,6,13,797,1479,0
5e836b26ac330b064f3c861e,24,female,1,1,66,Clear_not_profit_side,1,90,1,20,right,left,left,1,0,1,0.152,6,13,797,1479,0
5e836b26ac330b064f3c861e,24,female,1,1,69,Clear_not_profit_side,1,90,1,20,right,left,left,1,0,1,0.098,6,13,797,1479,0
5e836b26ac330b064f3c861e,24,female,1,1,70,Clear_not_profit_side,1,90,1,20,right,left,left,1,0,1,0.106,6,13,797,1479,0
5e836b26ac330b064f3c861e,24,female,1,1,71,Clear_not_profit_side,1,90,1,20,right,left,left,1,0,1,0.113,6,13,797,1479,0
5e836b26ac330b064f3c861e,24,female,1,1,72,Clear_not_profit_side,1,90,1,20,right,left,left,1,0,1,0.149,6,13,797,1479,0
5e836b26ac330b064f3c861e,24,female,1,1,73,Clear_not_profit_side,1,90,1,20,right,left,left,1,0,1,0.136,6,13,797,1479,0
5e836b26ac330b064f3c861e,24,female,1,1,83,Clear_not_profit_side,1,90,1,20,right,left,left,1,0,1,0.193,6,13,797,1479,0
5e836b26ac330b064f3c861e,24,female,1,1,85,Clear_not_profit_side,1,90,1,20,right,left,left,1,0,1,0.158,6,13,797,1479,0
5e836b26ac330b064f3c861e,24,female,1,1,88,Clear_not_profit_side,1,90,1,20,right,left,left,1,0,1,0.11900000000000001,6,13,797,1479,0
5e836b26ac330b064f3c861e,24,female,1,1,95,Clear_not_profit_side,1,90,1,20,right,left,left,1,0,1,0.161,6,13,797,1479,0
5e836b26ac330b064f3c861e,24,female,1,2,8,Clear_not_profit_side,1,90,1,20,right,left,left,1,0,1,0.094,7,13,682,1479,0
5e836b26ac330b064f3c861e,24,female,1,2,15,Clear_not_profit_side,1,90,1,20,right,left,left,1,0,1,0.136,7,13,682,1479,0
5e836b26ac330b064f3c861e,24,female,1,2,17,Clear_not_profit_side,1,90,1,20,right,left,left,1,0,1,0.11699999999999999,7,13,682,1479,0
5e836b26ac330b064f3c861e,24,female,1,2,18,Clear_not_profit_side,1,90,1,20,right,left,left,1,0,1,0.114,7,13,682,1479,0
5e836b26ac330b064f3c861e,24,female,1,2,22,Clear_not_profit_side,1,90,1,20,right,left,left,1,0,1,0.13699999999999998,7,13,682,1479,0
5e836b26ac330b064f3c861e,24,female,1,2,24,Clear_not_profit_side,1,90,0,0,right,left,left,1,20,1,0.19899999999999998,7,13,682,1479,0
5e836b26ac330b064f3c861e,24,female,1,2,25,Clear_not_profit_side,1,90,1,20,right,left,left,1,0,1,0.1,7,13,682,1479,0
5e836b26ac330b064f3c861e,24,female,1,2,27,Clear_not_profit_side,1,90,1,20,right,left,left,1,0,1,0.19899999999999998,7,13,682,1479,0
5e836b26ac330b064f3c861e,24,female,1,2,32,Clear_not_profit_side,1,90,1,20,right,left,left,1,0,1,0.209,7,13,682,1479,0
5e836b26ac330b064f3c861e,24,female,1,2,35,Clear_not_profit_side,1,90,1,20,right,left,left,1,0,1,0.106,7,13,682,1479,0
5e836b26ac330b064f3c861e,24,female,1,2,36,Clear_not_profit_side,1,90,1,20,right,left,left,1,0,1,0.105,7,13,682,1479,0
5e836b26ac330b064f3c861e,24,female,1,2,38,Clear_not_profit_side,1,90,1,20,right,left,left,1,0,1,0.10300000000000001,7,13,682,1479,0
5e836b26ac330b064f3c861e,24,female,1,2,41,Clear_not_profit_side,1,90,1,20,right,left,left,1,0,1,0.182,7,13,682,1479,0
5e836b26ac330b064f3c861e,24,female,1,2,48,Clear_not_profit_side,1,90,1,20,right,left,left,1,0,1,0.10300000000000001,7,13,682,1479,0
5e836b26ac330b064f3c861e,24,female,1,2,50,Clear_not_profit_side,1,90,1,20,right,left,left,1,0,1,0.172,7,13,682,1479,0
5e836b26ac330b064f3c861e,24,female,1,2,51,Clear_not_profit_side,1,90,1,20,right,left,left,1,0,1,0.145,7,13,682,1479,0
5e836b26ac330b064f3c861e,24,female,1,2,56,Clear_not_profit_side,1,90,1,20,right,left,left,1,0,1,0.10099999999999999,7,13,682,1479,0
5e836b26ac330b064f3c861e,24,female,1,2,61,Clear_not_profit_side,1,90,1,20,right,left,left,1,0,1,0.26899999999999996,7,13,682,1479,0
5e836b26ac330b064f3c861e,24,female,1,2,64,Clear_not_profit_side,1,90,1,20,right,left,left,1,0,1,0.172,7,13,682,1479,0
5e836b26ac330b064f3c861e,24,female,1,2,65,Clear_not_profit_side,1,90,1,20,right,left,left,1,0,1,0.11199999999999999,7,13,682,1479,0
5e836b26ac330b064f3c861e,24,female,1,2,66,Clear_not_profit_side,1,90,1,20,right,left,left,1,0,1,0.098,7,13,682,1479,0
5e836b26ac330b064f3c861e,24,female,1,2,67,Clear_not_profit_side,1,90,1,20,right,left,left,1,0,1,0.099,7,13,682,1479,0
5e836b26ac330b064f3c861e,24,female,1,2,69,Clear_not_profit_side,1,90,1,20,right,left,left,1,0,1,0.13699999999999998,7,13,682,1479,0
5e836b26ac330b064f3c861e,24,female,1,2,71,Clear_not_profit_side,1,90,1,20,right,left,left,1,0,1,0.132,7,13,682,1479,0
5e836b26ac330b064f3c861e,24,female,1,2,72,Clear_not_profit_side,1,90,1,20,right,left,left,1,0,1,0.106,7,13,682,1479,0
5e836b26ac330b064f3c861e,24,female,1,2,75,Clear_not_profit_side,1,90,1,20,right,left,left,1,0,1,0.139,7,13,682,1479,0
5e836b26ac330b064f3c861e,24,female,1,2,77,Clear_not_profit_side,1,90,1,20,right,left,left,1,0,1,0.10800000000000001,7,13,682,1479,0
5e836b26ac330b064f3c861e,24,female,1,2,84,Clear_not_profit_side,1,90,1,20,right,left,left,1,0,1,0.154,7,13,682,1479,0
5e836b26ac330b064f3c861e,24,female,1,2,85,Clear_not_profit_side,1,90,0,0,right,left,left,1,20,1,0.121,7,13,682,1479,0
5e836b26ac330b064f3c861e,24,female,1,2,87,Clear_not_profit_side,1,90,1,20,right,left,left,1,0,1,0.157,7,13,682,1479,0
5e836b26ac330b064f3c861e,24,female,1,2,88,Clear_not_profit_side,1,90,1,20,right,left,left,1,0,1,0.126,7,13,682,1479,0
5e836b26ac330b064f3c861e,24,female,1,2,90,Clear_not_profit_side,1,90,1,20,right,left,left,1,0,1,0.16,7,13,682,1479,0
5e836b26ac330b064f3c861e,24,female,1,2,95,Clear_not_profit_side,1,90,1,20,right,left,left,1,0,1,0.185,7,13,682,1479,0
5e836b26ac330b064f3c861e,24,female,1,2,96,Clear_not_profit_side,1,90,1,20,right,left,left,1,0,1,0.084,7,13,682,1479,0
54da5755fdf99b2ae8ab221c,27,other,1,1,1,Clear_not_profit_side,1,90,1,20,left,right,right,1,0,1,0.27399999999999997,7,22,816,1644,0
54da5755fdf99b2ae8ab221c,27,other,1,1,4,Clear_not_profit_side,1,90,1,20,left,right,right,1,0,1,0.162,7,22,816,1644,0
54da5755fdf99b2ae8ab221c,27,other,1,1,7,Clear_not_profit_side,1,90,1,20,left,right,right,1,0,1,0.131,7,22,816,1644,0
54da5755fdf99b2ae8ab221c,27,other,1,1,11,Clear_not_profit_side,1,90,1,20,left,right,right,1,0,1,0.139,7,22,816,1644,0
54da5755fdf99b2ae8ab221c,27,other,1,1,12,Clear_not_profit_side,1,90,1,20,left,right,right,1,0,1,0.138,7,22,816,1644,0
54da5755fdf99b2ae8ab221c,27,other,1,1,15,Clear_not_profit_side,1,90,1,20,left,right,right,1,0,1,0.156,7,22,816,1644,0
54da5755fdf99b2ae8ab221c,27,other,1,1,17,Clear_not_profit_side,1,90,0,0,left,right,right,1,20,1,0.125,7,22,816,1644,0
54da5755fdf99b2ae8ab221c,27,other,1,1,18,Clear_not_profit_side,1,90,1,20,left,right,right,1,0,1,0.122,7,22,816,1644,0
54da5755fdf99b2ae8ab221c,27,other,1,1,20,Clear_not_profit_side,1,90,1,20,left,right,right,1,0,1,0.155,7,22,816,1644,0
54da5755fdf99b2ae8ab221c,27,other,1,1,22,Clear_not_profit_side,1,90,1,20,left,right,right,1,0,1,0.11900000000000001,7,22,816,1644,0
54da5755fdf99b2ae8ab221c,27,other,1,1,24,Clear_not_profit_side,1,90,1,20,left,right,right,1,0,1,0.174,7,22,816,1644,0
54da5755fdf99b2ae8ab221c,27,other,1,1,28,Clear_not_profit_side,1,90,1,20,left,right,right,1,0,1,0.11,7,22,816,1644,0
54da5755fdf99b2ae8ab221c,27,other,1,1,32,Clear_not_profit_side,1,90,1,20,left,right,right,1,0,1,0.113,7,22,816,1644,0
54da5755fdf99b2ae8ab221c,27,other,1,1,33,Clear_not_profit_side,1,90,1,20,left,right,right,1,0,1,0.11,7,22,816,1644,0
54da5755fdf99b2ae8ab221c,27,other,1,1,34,Clear_not_profit_side,1,90,1,20,left,right,right,1,0,1,0.107,7,22,816,1644,0
54da5755fdf99b2ae8ab221c,27,other,1,1,36,Clear_not_profit_side,1,90,1,20,left,right,right,1,0,1,0.141,7,22,816,1644,0
54da5755fdf99b2ae8ab221c,27,other,1,1,40,Clear_not_profit_side,1,90,0,0,left,right,right,1,20,1,0.11199999999999999,7,22,816,1644,0
54da5755fdf99b2ae8ab221c,27,other,1,1,41,Clear_not_profit_side,1,90,1,20,left,right,right,1,0,1,0.12,7,22,816,1644,0
54da5755fdf99b2ae8ab221c,27,other,1,1,48,Clear_not_profit_side,1,90,1,20,left,right,right,1,0,1,0.215,7,22,816,1644,0
54da5755fdf99b2ae8ab221c,27,other,1,1,50,Clear_not_profit_side,1,90,1,20,left,right,right,1,0,1,0.16,7,22,816,1644,0
54da5755fdf99b2ae8ab221c,27,other,1,1,53,Clear_not_profit_side,1,90,1,20,left,right,right,1,0,1,0.131,7,22,816,1644,0
54da5755fdf99b2ae8ab221c,27,other,1,1,59,Clear_not_profit_side,1,90,1,20,left,right,right,1,0,1,0.122,7,22,816,1644,0
54da5755fdf99b2ae8ab221c,27,other,1,1,60,Clear_not_profit_side,1,90,1,20,left,right,right,1,0,1,0.096,7,22,816,1644,0
54da5755fdf99b2ae8ab221c,27,other,1,1,64,Clear_not_profit_side,1,90,1,20,left,right,right,1,0,1,0.15,7,22,816,1644,0
54da5755fdf99b2ae8ab221c,27,other,1,1,69,Clear_not_profit_side,1,90,1,20,left,right,right,1,0,1,0.18899999999999997,7,22,816,1644,0
54da5755fdf99b2ae8ab221c,27,other,1,1,78,Clear_not_profit_side,1,90,1,20,left,right,right,1,0,1,0.133,7,22,816,1644,0
54da5755fdf99b2ae8ab221c,27,other,1,1,80,Clear_not_profit_side,1,90,1,20,left,right,right,1,0,1,0.11900000000000001,7,22,816,1644,0
54da5755fdf99b2ae8ab221c,27,other,1,1,87,Clear_not_profit_side,1,90,1,20,left,right,right,1,0,1,0.14,7,22,816,1644,0
54da5755fdf99b2ae8ab221c,27,other,1,1,88,Clear_not_profit_side,1,90,1,20,left,right,right,1,0,1,0.154,7,22,816,1644,0
54da5755fdf99b2ae8ab221c,27,other,1,1,89,Clear_not_profit_side,1,90,1,20,left,right,right,1,0,1,0.133,7,22,816,1644,0
54da5755fdf99b2ae8ab221c,27,other,1,1,91,Clear_not_profit_side,1,90,1,20,left,right,right,1,0,1,0.106,7,22,816,1644,0
54da5755fdf99b2ae8ab221c,27,other,1,1,94,Clear_not_profit_side,1,90,1,20,left,right,right,1,0,1,0.124,7,22,816,1644,0
54da5755fdf99b2ae8ab221c,27,other,1,1,95,Clear_not_profit_side,1,90,1,20,left,right,right,1,0,1,0.128,7,22,816,1644,0
54da5755fdf99b2ae8ab221c,27,other,1,1,100,Clear_not_profit_side,1,90,1,20,left,right,right,1,0,1,0.17300000000000001,7,22,816,1644,0
54da5755fdf99b2ae8ab221c,27,other,1,2,3,Clear_not_profit_side,1,90,1,20,left,right,right,1,0,1,0.11599999999999999,15,22,828,1644,0
54da5755fdf99b2ae8ab221c,27,other,1,2,4,Clear_not_profit_side,1,90,1,20,left,right,right,1,0,1,0.11699999999999999,15,22,828,1644,0
54da5755fdf99b2ae8ab221c,27,other,1,2,5,Clear_not_profit_side,1,90,1,20,left,right,right,1,0,1,0.098,15,22,828,1644,0
54da5755fdf99b2ae8ab221c,27,other,1,2,8,Clear_not_profit_side,1,90,1,20,left,right,right,1,0,1,0.15,15,22,828,1644,0
54da5755fdf99b2ae8ab221c,27,other,1,2,9,Clear_not_profit_side,1,90,1,20,left,right,right,1,0,1,0.126,15,22,828,1644,0
54da5755fdf99b2ae8ab221c,27,other,1,2,12,Clear_not_profit_side,1,90,1,20,left,right,right,1,0,1,0.19,15,22,828,1644,0
54da5755fdf99b2ae8ab221c,27,other,1,2,17,Clear_not_profit_side,1,90,1,20,left,right,right,1,0,1,0.142,15,22,828,1644,0
54da5755fdf99b2ae8ab221c,27,other,1,2,18,Clear_not_profit_side,1,90,1,20,left,right,right,1,0,1,0.192,15,22,828,1644,0
54da5755fdf99b2ae8ab221c,27,other,1,2,25,Clear_not_profit_side,1,90,1,20,left,right,right,1,0,1,0.14,15,22,828,1644,0
54da5755fdf99b2ae8ab221c,27,other,1,2,28,Clear_not_profit_side,1,90,1,20,left,right,right,1,0,1,0.125,15,22,828,1644,0
54da5755fdf99b2ae8ab221c,27,other,1,2,30,Clear_not_profit_side,1,90,1,20,left,right,right,1,0,1,0.12300000000000001,15,22,828,1644,0
54da5755fdf99b2ae8ab221c,27,other,1,2,35,Clear_not_profit_side,1,90,1,20,left,right,right,1,0,1,0.147,15,22,828,1644,0
54da5755fdf99b2ae8ab221c,27,other,1,2,38,Clear_not_profit_side,1,90,1,20,left,right,right,1,0,1,0.153,15,22,828,1644,0
54da5755fdf99b2ae8ab221c,27,other,1,2,41,Clear_not_profit_side,1,90,1,20,left,right,right,1,0,1,0.11800000000000001,15,22,828,1644,0
54da5755fdf99b2ae8ab221c,27,other,1,2,42,Clear_not_profit_side,1,90,0,0,left,right,right,1,20,1,0.198,15,22,828,1644,0
54da5755fdf99b2ae8ab221c,27,other,1,2,43,Clear_not_profit_side,1,90,1,20,left,right,left,0,-19,0,0.175,15,22,828,1644,1
54da5755fdf99b2ae8ab221c,27,other,1,2,49,Clear_not_profit_side,1,90,1,20,left,right,right,1,0,1,0.147,15,22,828,1644,0
54da5755fdf99b2ae8ab221c,27,other,1,2,52,Clear_not_profit_side,1,90,1,20,left,right,right,1,0,1,0.132,15,22,828,1644,0
54da5755fdf99b2ae8ab221c,27,other,1,2,53,Clear_not_profit_side,1,90,1,20,left,right,right,1,0,1,0.139,15,22,828,1644,0
54da5755fdf99b2ae8ab221c,27,other,1,2,54,Clear_not_profit_side,1,90,1,20,left,right,right,1,0,1,0.136,15,22,828,1644,0
54da5755fdf99b2ae8ab221c,27,other,1,2,56,Clear_not_profit_side,1,90,1,20,left,right,right,1,0,1,0.179,15,22,828,1644,0
54da5755fdf99b2ae8ab221c,27,other,1,2,57,Clear_not_profit_side,1,90,1,20,left,right,right,1,0,1,0.114,15,22,828,1644,0
54da5755fdf99b2ae8ab221c,27,other,1,2,60,Clear_not_profit_side,1,90,1,20,left,right,right,1,0,1,0.187,15,22,828,1644,0
54da5755fdf99b2ae8ab221c,27,other,1,2,64,Clear_not_profit_side,1,90,1,20,left,right,right,1,0,1,0.10800000000000001,15,22,828,1644,0
54da5755fdf99b2ae8ab221c,27,other,1,2,65,Clear_not_profit_side,1,90,1,20,left,right,right,1,0,1,0.113,15,22,828,1644,0
54da5755fdf99b2ae8ab221c,27,other,1,2,69,Clear_not_profit_side,1,90,1,20,left,right,right,1,0,1,0.11699999999999999,15,22,828,1644,0
54da5755fdf99b2ae8ab221c,27,other,1,2,72,Clear_not_profit_side,1,90,1,20,left,right,right,1,0,1,0.17300000000000001,15,22,828,1644,0
54da5755fdf99b2ae8ab221c,27,other,1,2,74,Clear_not_profit_side,1,90,1,20,left,right,right,1,0,1,0.136,15,22,828,1644,0
54da5755fdf99b2ae8ab221c,27,other,1,2,79,Clear_not_profit_side,1,90,1,20,left,right,right,1,0,1,0.13699999999999998,15,22,828,1644,0
54da5755fdf99b2ae8ab221c,27,other,1,2,86,Clear_not_profit_side,1,90,0,0,left,right,right,1,20,1,0.124,15,22,828,1644,0
54da5755fdf99b2ae8ab221c,27,other,1,2,91,Clear_not_profit_side,1,90,1,20,left,right,right,1,0,1,0.146,15,22,828,1644,0
54da5755fdf99b2ae8ab221c,27,other,1,2,92,Clear_not_profit_side,1,90,1,20,left,right,right,1,0,1,0.171,15,22,828,1644,0
54da5755fdf99b2ae8ab221c,27,other,1,2,97,Clear_not_profit_side,1,90,1,20,left,right,right,1,0,1,0.12,15,22,828,1644,0
54da5755fdf99b2ae8ab221c,27,other,1,2,100,Clear_not_profit_side,1,90,1,20,left,right,right,1,0,1,0.142,15,22,828,1644,0
5806b9d1084b750001dbcde0,54,female,1,1,2,Clear_not_profit_side,2,10,0,0,right,left,right,20,1,0,1.091,23,42,700,1940,1
5806b9d1084b750001dbcde0,54,female,1,1,3,Clear_not_profit_side,2,10,0,0,right,left,left,1,20,1,0.33899999999999997,23,42,700,1940,0
5806b9d1084b750001dbcde0,54,female,1,1,4,Clear_not_profit_side,2,10,0,0,right,left,left,1,20,1,0.221,23,42,700,1940,0
5806b9d1084b750001dbcde0,54,female,1,1,7,Clear_not_profit_side,2,10,0,0,right,left,right,20,1,0,0.252,23,42,700,1940,1
5806b9d1084b750001dbcde0,54,female,1,1,11,Clear_not_profit_side,2,10,0,0,right,left,left,1,20,1,0.26,23,42,700,1940,0
5806b9d1084b750001dbcde0,54,female,1,1,12,Clear_not_profit_side,2,10,0,0,right,left,left,1,20,1,0.27699999999999997,23,42,700,1940,0
5806b9d1084b750001dbcde0,54,female,1,1,16,Clear_not_profit_side,2,10,0,0,right,left,right,20,1,0,0.71,23,42,700,1940,1
5806b9d1084b750001dbcde0,54,female,1,1,17,Clear_not_profit_side,2,10,1,180,right,left,left,1,-160,1,0.67,23,42,700,1940,0
5806b9d1084b750001dbcde0,54,female,1,1,19,Clear_not_profit_side,2,10,0,0,right,left,left,1,20,1,0.261,23,42,700,1940,0
5806b9d1084b750001dbcde0,54,female,1,1,24,Clear_not_profit_side,2,10,0,0,right,left,left,1,20,1,0.28600000000000003,23,42,700,1940,0
5806b9d1084b750001dbcde0,54,female,1,1,25,Clear_not_profit_side,2,10,0,0,right,left,left,1,20,1,0.287,23,42,700,1940,0
5806b9d1084b750001dbcde0,54,female,1,1,26,Clear_not_profit_side,2,10,1,180,right,left,right,-160,-179,0,0.371,23,42,700,1940,1
5806b9d1084b750001dbcde0,54,female,1,1,28,Clear_not_profit_side,2,10,0,0,right,left,left,1,20,1,0.46299999999999997,23,42,700,1940,0
5806b9d1084b750001dbcde0,54,female,1,1,29,Clear_not_profit_side,2,10,1,180,right,left,left,1,-160,1,0.16699999999999998,23,42,700,1940,0
5806b9d1084b750001dbcde0,54,female,1,1,31,Clear_not_profit_side,2,10,0,0,right,left,left,1,20,1,0.489,23,42,700,1940,0
5806b9d1084b750001dbcde0,54,female,1,1,38,Clear_not_profit_side,2,10,1,180,right,left,left,1,-160,1,0.22699999999999998,23,42,700,1940,0
5806b9d1084b750001dbcde0,54,female,1,1,41,Clear_not_profit_side,2,10,0,0,right,left,left,1,20,1,0.408,23,42,700,1940,0
5806b9d1084b750001dbcde0,54,female,1,1,43,Clear_not_profit_side,2,10,0,0,right,left,left,1,20,1,0.248,23,42,700,1940,0
5806b9d1084b750001dbcde0,54,female,1,1,48,Clear_not_profit_side,2,10,0,0,right,left,right,20,1,0,0.405,23,42,700,1940,1
5806b9d1084b750001dbcde0,54,female,1,1,50,Clear_not_profit_side,2,10,0,0,right,left,left,1,20,1,0.445,23,42,700,1940,0
5806b9d1084b750001dbcde0,54,female,1,1,52,Clear_not_profit_side,2,10,0,0,right,left,right,20,1,0,0.621,23,42,700,1940,1
5806b9d1084b750001dbcde0,54,female,1,1,57,Clear_not_profit_side,2,10,0,0,right,left,left,1,20,1,0.253,23,42,700,1940,0
5806b9d1084b750001dbcde0,54,female,1,1,58,Clear_not_profit_side,2,10,0,0,right,left,left,1,20,1,0.302,23,42,700,1940,0
5806b9d1084b750001dbcde0,54,female,1,1,60,Clear_not_profit_side,2,10,1,180,right,left,left,1,-160,1,0.258,23,42,700,1940,0
5806b9d1084b750001dbcde0,54,female,1,1,62,Clear_not_profit_side,2,10,0,0,right,left,left,1,20,1,0.392,23,42,700,1940,0
5806b9d1084b750001dbcde0,54,female,1,1,68,Clear_not_profit_side,2,10,0,0,right,left,left,1,20,1,0.21899999999999997,23,42,700,1940,0
5806b9d1084b750001dbcde0,54,female,1,1,74,Clear_not_profit_side,2,10,0,0,right,left,left,1,20,1,0.223,23,42,700,1940,0
5806b9d1084b750001dbcde0,54,female,1,1,79,Clear_not_profit_side,2,10,0,0,right,left,left,1,20,1,0.196,23,42,700,1940,0
5806b9d1084b750001dbcde0,54,female,1,1,80,Clear_not_profit_side,2,10,0,0,right,left,left,1,20,1,0.29,23,42,700,1940,0
5806b9d1084b750001dbcde0,54,female,1,1,82,Clear_not_profit_side,2,10,0,0,right,left,left,1,20,1,0.33899999999999997,23,42,700,1940,0
5806b9d1084b750001dbcde0,54,female,1,1,88,Clear_not_profit_side,2,10,0,0,right,left,right,20,1,0,0.35600000000000004,23,42,700,1940,1
5806b9d1084b750001dbcde0,54,female,1,1,97,Clear_not_profit_side,2,10,0,0,right,left,left,1,20,1,0.252,23,42,700,1940,0
5806b9d1084b750001dbcde0,54,female,1,1,98,Clear_not_profit_side,2,10,0,0,right,left,left,1,20,1,0.209,23,42,700,1940,0
5806b9d1084b750001dbcde0,54,female,1,1,99,Clear_not_profit_side,2,10,0,0,right,left,left,1,20,1,0.46,23,42,700,1940,0
5806b9d1084b750001dbcde0,54,female,1,2,1,Clear_not_profit_side,2,10,0,0,right,left,left,1,20,1,0.19,19,42,1240,1940,0
5806b9d1084b750001dbcde0,54,female,1,2,10,Clear_not_profit_side,2,10,0,0,right,left,left,1,20,1,0.20600000000000002,19,42,1240,1940,0
5806b9d1084b750001dbcde0,54,female,1,2,14,Clear_not_profit_side,2,10,0,0,right,left,left,1,20,1,0.18100000000000002,19,42,1240,1940,0
5806b9d1084b750001dbcde0,54,female,1,2,16,Clear_not_profit_side,2,10,1,180,right,left,left,1,-160,1,0.284,19,42,1240,1940,0
5806b9d1084b750001dbcde0,54,female,1,2,17,Clear_not_profit_side,2,10,0,0,right,left,left,1,20,1,0.249,19,42,1240,1940,0
5806b9d1084b750001dbcde0,54,female,1,2,19,Clear_not_profit_side,2,10,0,0,right,left,left,1,20,1,0.385,19,42,1240,1940,0
5806b9d1084b750001dbcde0,54,female,1,2,26,Clear_not_profit_side,2,10,1,180,right,left,left,1,-160,1,0.442,19,42,1240,1940,0
5806b9d1084b750001dbcde0,54,female,1,2,27,Clear_not_profit_side,2,10,0,0,right,left,left,1,20,1,0.23800000000000002,19,42,1240,1940,0
5806b9d1084b750001dbcde0,54,female,1,2,32,Clear_not_profit_side,2,10,0,0,right,left,left,1,20,1,0.619,19,42,1240,1940,0
5806b9d1084b750001dbcde0,54,female,1,2,38,Clear_not_profit_side,2,10,0,0,right,left,left,1,20,1,0.242,19,42,1240,1940,0
5806b9d1084b750001dbcde0,54,female,1,2,40,Clear_not_profit_side,2,10,0,0,right,left,left,1,20,1,0.401,19,42,1240,1940,0
5806b9d1084b750001dbcde0,54,female,1,2,41,Clear_not_profit_side,2,10,0,0,right,left,left,1,20,1,0.142,19,42,1240,1940,0
5806b9d1084b750001dbcde0,54,female,1,2,42,Clear_not_profit_side,2,10,0,0,right,left,left,1,20,1,0.142,19,42,1240,1940,0
5806b9d1084b750001dbcde0,54,female,1,2,48,Clear_not_profit_side,2,10,0,0,right,left,right,20,1,0,0.33399999999999996,19,42,1240,1940,1
5806b9d1084b750001dbcde0,54,female,1,2,50,Clear_not_profit_side,2,10,0,0,right,left,left,1,20,1,0.247,19,42,1240,1940,0
5806b9d1084b750001dbcde0,54,female,1,2,52,Clear_not_profit_side,2,10,0,0,right,left,left,1,20,1,0.35,19,42,1240,1940,0
5806b9d1084b750001dbcde0,54,female,1,2,54,Clear_not_profit_side,2,10,1,180,right,left,left,1,-160,1,0.268,19,42,1240,1940,0
5806b9d1084b750001dbcde0,54,female,1,2,55,Clear_not_profit_side,2,10,0,0,right,left,left,1,20,1,0.25,19,42,1240,1940,0
5806b9d1084b750001dbcde0,54,female,1,2,56,Clear_not_profit_side,2,10,0,0,right,left,left,1,20,1,0.268,19,42,1240,1940,0
5806b9d1084b750001dbcde0,54,female,1,2,57,Clear_not_profit_side,2,10,0,0,right,left,left,1,20,1,0.154,19,42,1240,1940,0
5806b9d1084b750001dbcde0,54,female,1,2,59,Clear_not_profit_side,2,10,0,0,right,left,right,20,1,0,0.317,19,42,1240,1940,1
5806b9d1084b750001dbcde0,54,female,1,2,62,Clear_not_profit_side,2,10,0,0,right,left,left,1,20,1,0.40700000000000003,19,42,1240,1940,0
5806b9d1084b750001dbcde0,54,female,1,2,67,Clear_not_profit_side,2,10,0,0,right,left,left,1,20,1,0.285,19,42,1240,1940,0
5806b9d1084b750001dbcde0,54,female,1,2,68,Clear_not_profit_side,2,10,0,0,right,left,left,1,20,1,0.156,19,42,1240,1940,0
5806b9d1084b750001dbcde0,54,female,1,2,73,Clear_not_profit_side,2,10,0,0,right,left,left,1,20,1,0.23600000000000002,19,42,1240,1940,0
5806b9d1084b750001dbcde0,54,female,1,2,78,Clear_not_profit_side,2,10,0,0,right,left,left,1,20,1,0.14400000000000002,19,42,1240,1940,0
5806b9d1084b750001dbcde0,54,female,1,2,80,Clear_not_profit_side,2,10,0,0,right,left,left,1,20,1,0.19699999999999998,19,42,1240,1940,0
5806b9d1084b750001dbcde0,54,female,1,2,82,Clear_not_profit_side,2,10,0,0,right,left,left,1,20,1,0.21,19,42,1240,1940,0
5806b9d1084b750001dbcde0,54,female,1,2,89,Clear_not_profit_side,2,10,0,0,right,left,left,1,20,1,0.29,19,42,1240,1940,0
5806b9d1084b750001dbcde0,54,female,1,2,90,Clear_not_profit_side,2,10,0,0,right,left,left,1,20,1,0.214,19,42,1240,1940,0
5806b9d1084b750001dbcde0,54,female,1,2,91,Clear_not_profit_side,2,10,0,0,right,left,left,1,20,1,0.19899999999999998,19,42,1240,1940,0
5806b9d1084b750001dbcde0,54,female,1,2,94,Clear_not_profit_side,2,10,0,0,right,left,left,1,20,1,0.153,19,42,1240,1940,0
5806b9d1084b750001dbcde0,54,female,1,2,95,Clear_not_profit_side,2,10,0,0,right,left,left,1,20,1,0.161,19,42,1240,1940,0
5806b9d1084b750001dbcde0,54,female,1,2,100,Clear_not_profit_side,2,10,0,0,right,left,left,1,20,1,0.39,19,42,1240,1940,0
5ec22961a5533967a888db87,46,male,1,1,1,Clear_not_profit_side,3,0,0,0,right,left,right,2,1,0,0.807,9,25,150,307,1
5ec22961a5533967a888db87,46,male,1,1,2,Clear_not_profit_side,3,0,0,0,right,left,left,1,2,1,0.8029999999999999,9,25,150,307,0
5ec22961a5533967a888db87,46,male,1,1,5,Clear_not_profit_side,3,0,0,0,right,left,left,1,2,1,0.215,9,25,150,307,0
5ec22961a5533967a888db87,46,male,1,1,7,Clear_not_profit_side,3,0,0,0,right,left,left,1,2,1,0.19,9,25,150,307,0
5ec22961a5533967a888db87,46,male,1,1,15,Clear_not_profit_side,3,0,0,0,right,left,left,1,2,1,0.201,9,25,150,307,0
5ec22961a5533967a888db87,46,male,1,1,19,Clear_not_profit_side,3,0,0,0,right,left,left,1,2,1,0.20199999999999999,9,25,150,307,0
5ec22961a5533967a888db87,46,male,1,1,20,Clear_not_profit_side,3,0,0,0,right,left,left,1,2,1,0.159,9,25,150,307,0
5ec22961a5533967a888db87,46,male,1,1,22,Clear_not_profit_side,3,0,0,0,right,left,left,1,2,1,0.207,9,25,150,307,0
5ec22961a5533967a888db87,46,male,1,1,23,Clear_not_profit_side,3,0,0,0,right,left,left,1,2,1,0.183,9,25,150,307,0
5ec22961a5533967a888db87,46,male,1,1,25,Clear_not_profit_side,3,0,0,0,right,left,left,1,2,1,0.177,9,25,150,307,0
5ec22961a5533967a888db87,46,male,1,1,26,Clear_not_profit_side,3,0,0,0,right,left,left,1,2,1,0.157,9,25,150,307,0
5ec22961a5533967a888db87,46,male,1,1,30,Clear_not_profit_side,3,0,0,0,right,left,left,1,2,1,0.14300000000000002,9,25,150,307,0
