user_id,age,gender,attention,block_number,trial_number,trial_type,conditions,p_inspection,inspection,fine_size,profitable_side,points_right,points_left,exchange_ratio,basic_payment,true_side,choice,trial_payoff,alternative_payoff,choice_correct,rt_choice,block_errors,final_errors,block_payoff,final_payoff,bonus,final_payment,date,time
5af478d820299700016d0748,30,female,1,1,1,Clear_not_profit_side,high_enforcement,90,1,20,right,9,16,1000,1.45,left,left,1,0,1,0.583,16,24,559,1240,1.24,2.69,21-05-2020,14:54:43
5af478d820299700016d0748,30,female,1,1,2,Clear_not_profit_side,high_enforcement,90,0,-,right,9,16,1000,1.45,left,left,1,20,1,0.367,16,24,559,1240,1.24,2.69,21-05-2020,14:54:43
5af478d820299700016d0748,30,female,1,1,3,Clear_not_profit_side,high_enforcement,90,1,20,right,9,16,1000,1.45,left,left,1,0,1,0.407,16,24,559,1240,1.24,2.69,21-05-2020,14:54:43
5af478d820299700016d0748,30,female,1,1,4,Ambigous_right,high_enforcement,90,1,20,right,14,11,1000,1.45,right,right,20,-19,1,0.393,16,24,559,1240,1.24,2.69,21-05-2020,14:54:43
5af478d820299700016d0748,30,female,1,1,5,Clear_not_profit_side,high_enforcement,90,1,20,right,9,16,1000,1.45,left,left,1,0,1,0.324,16,24,559,1240,1.24,2.69,21-05-2020,14:54:43
5af478d820299700016d0748,30,female,1,1,6,Ambigous_left,high_enforcement,90,1,20,right,11,14,1000,1.45,left,left,1,0,1,0.347,16,24,559,1240,1.24,2.69,21-05-2020,14:54:43
5af478d820299700016d0748,30,female,1,1,7,Ambigous_left,high_enforcement,90,1,20,right,11,14,1000,1.45,left,right,0,-19,0,0.292,16,24,559,1240,1.24,2.69,21-05-2020,14:54:43
5af478d820299700016d0748,30,female,1,1,8,Ambigous_left,high_enforcement,90,1,20,right,11,14,1000,1.45,left,left,1,0,1,0.514,16,24,559,1240,1.24,2.69,21-05-2020,14:54:43
5af478d820299700016d0748,30,female,1,1,9,Ambigous_right,high_enforcement,90,1,20,right,14,11,1000,1.45,right,right,20,-19,1,0.308,16,24,559,1240,1.24,2.69,21-05-2020,14:54:43
5af478d820299700016d0748,30,female,1,1,10,Ambigous_right,high_enforcement,90,1,20,right,14,11,1000,1.45,right,right,20,-19,1,0.268,16,24,559,1240,1.24,2.69,21-05-2020,14:54:43
5af478d820299700016d0748,30,female,1,1,11,Ambigous_left,high_enforcement,90,1,20,right,11,14,1000,1.45,left,left,1,0,1,0.261,16,24,559,1240,1.24,2.69,21-05-2020,14:54:43
5af478d820299700016d0748,30,female,1,1,12,Ambigous_right,high_enforcement,90,1,20,right,14,11,1000,1.45,right,right,20,-19,1,0.237,16,24,559,1240,1.24,2.69,21-05-2020,14:54:43
5af478d820299700016d0748,30,female,1,1,13,Clear_not_profit_side,high_enforcement,90,1,20,right,9,16,1000,1.45,left,left,1,0,1,0.291,16,24,559,1240,1.24,2.69,21-05-2020,14:54:43
5af478d820299700016d0748,30,female,1,1,14,Clear_not_profit_side,high_enforcement,90,1,20,right,9,16,1000,1.45,left,left,1,0,1,0.311,16,24,559,1240,1.24,2.69,21-05-2020,14:54:43
5af478d820299700016d0748,30,female,1,1,15,Ambigous_left,high_enforcement,90,1,20,right,11,14,1000,1.45,left,right,0,-19,0,0.435,16,24,559,1240,1.24,2.69,21-05-2020,14:54:43
5af478d820299700016d0748,30,female,1,1,16,Clear_not_profit_side,high_enforcement,90,1,20,right,9,16,1000,1.45,left,left,1,0,1,0.264,16,24,559,1240,1.24,2.69,21-05-2020,14:54:43
5af478d820299700016d0748,30,female,1,1,17,Ambigous_right,high_enforcement,90,0,-,right,14,11,1000,1.45,right,right,20,1,1,0.325,16,24,559,1240,1.24,2.69,21-05-2020,14:54:43
5af478d820299700016d0748,30,female,1,1,18,Clear_not_profit_side,high_enforcement,90,1,20,right,9,16,1000,1.45,left,left,1,0,1,0.253,16,24,559,1240,1.24,2.69,21-05-2020,14:54:43
5af478d820299700016d0748,30,female,1,1,19,Ambigous_right,high_enforcement,90,1,20,right,14,11,1000,1.45,right,left,-19,0,0,0.193,16,24,559,1240,1.24,2.69,21-05-2020,14:54:43
5af478d820299700016d0748,30,female,1,1,20,Ambigous_right,high_enforcement,90,1,20,right,14,11,1000,1.45,right,right,20,-19,1,0.291,16,24,559,1240,1.24,2.69,21-05-2020,14:54:43
5af478d820299700016d0748,30,female,1,1,21,Ambigous_right,high_enforcement,90,0,-,right,14,11,1000,1.45,right,right,20,1,1,0.321,16,24,559,1240,1.24,2.69,21-05-2020,14:54:43
5af478d820299700016d0748,30,female,1,1,22,Ambigous_right,high_enforcement,90,1,20,right,14,11,1000,1.45,right,left,-19,0,0,0.303,16,24,559,1240,1.24,2.69,21-05-2020,14:54:43
5af478d820299700016d0748,30,female,1,1,23,Clear_not_profit_side,high_enforcement,90,1,20,right,9,16,1000,1.45,left,left,1,0,1,0.324,16,24,559,1240,1.24,2.69,21-05-2020,14:54:43
5af478d820299700016d0748,30,female,1,1,24,Clear_not_profit_side,high_enforcement,90,1,20,right,9,16,1000,1.45,left,left,1,0,1,0.3,16,24,559,1240,1.24,2.69,21-05-2020,14:54:43
5af478d820299700016d0748,30,female,1,1,25,Ambigous_right,high_enforcement,90,0,-,right,14,11,1000,1.45,right,right,20,1,1,0.317,16,24,559,1240,1.24,2.69,21-05-2020,14:54:43
5af478d820299700016d0748,30,female,1,1,26,Clear_not_profit_side,high_enforcement,90,1,20,right,9,16,1000,1.45,left,left,1,0,1,0.55,16,24,559,1240,1.24,2.69,21-05-2020,14:54:43
5af478d820299700016d0748,30,female,1,1,27,Clear_not_profit_side,high_enforcement,90,1,20,right,9,16,1000,1.45,left,left,1,0,1,0.293,16,24,559,1240,1.24,2.69,21-05-2020,14:54:43
5af478d820299700016d0748,30,female,1,1,28,Ambigous_left,high_enforcement,90,1,20,right,11,14,1000,1.45,left,left,1,0,1,0.181,16,24,559,1240,1.24,2.69,21-05-2020,14:54:43
5af478d820299700016d0748,30,female,1,1,29,Clear_not_profit_side,high_enforcement,90,1,20,right,9,16,1000,1.45,left,left,1,0,1,0.258,16,24,559,1240,1.24,2.69,21-05-2020,14:54:43
5af478d820299700016d0748,30,female,1,1,30,Ambigous_left,high_enforcement,90,1,20,right,11,14,1000,1.45,left,left,1,0,1,0.368,16,24,559,1240,1.24,2.69,21-05-2020,14:54:43
5af478d820299700016d0748,30,female,1,1,31,Clear_not_profit_side,high_enforcement,90,1,20,right,9,16,1000,1.45,left,left,1,0,1,0.263,16,24,559,1240,1.24,2.69,21-05-2020,14:54:43
5af478d820299700016d0748,30,female,1,1,32,Clear_profit_side,high_enforcement,90,0,-,right,16,9,1000,1.45,right,right,20,1,1,0.317,16,24,559,1240,1.24,2.69,21-05-2020,14:54:43
5af478d820299700016d0748,30,female,1,1,33,Ambigous_left,high_enforcement,90,1,20,right,11,14,1000,1.45,left,right,0,-19,0,0.359,16,24,559,1240,1.24,2.69,21-05-2020,14:54:43
5af478d820299700016d0748,30,female,1,1,34,Clear_profit_side,high_enforcement,90,1,20,right,16,9,1000,1.45,right,right,20,-19,1,0.242,16,24,559,1240,1.24,2.69,21-05-2020,14:54:43
5af478d820299700016d0748,30,female,1,1,35,Ambigous_right,high_enforcement,90,1,20,right,14,11,1000,1.45,right,right,20,-19,1,0.261,16,24,559,1240,1.24,2.69,21-05-2020,14:54:43
5af478d820299700016d0748,30,female,1,1,36,Clear_profit_side,high_enforcement,90,1,20,right,16,9,1000,1.45,right,right,20,-19,1,0.217,16,24,559,1240,1.24,2.69,21-05-2020,14:54:43
5af478d820299700016d0748,30,female,1,1,37,Ambigous_left,high_enforcement,90,0,-,right,11,14,1000,1.45,left,left,1,20,1,0.464,16,24,559,1240,1.24,2.69,21-05-2020,14:54:43
5af478d820299700016d0748,30,female,1,1,38,Clear_not_profit_side,high_enforcement,90,1,20,right,9,16,1000,1.45,left,left,1,0,1,0.383,16,24,559,1240,1.24,2.69,21-05-2020,14:54:43
5af478d820299700016d0748,30,female,1,1,39,Clear_not_profit_side,high_enforcement,90,1,20,right,9,16,1000,1.45,left,left,1,0,1,0.178,16,24,559,1240,1.24,2.69,21-05-2020,14:54:43
5af478d820299700016d0748,30,female,1,1,40,Ambigous_left,high_enforcement,90,1,20,right,11,14,1000,1.45,left,left,1,0,1,0.177,16,24,559,1240,1.24,2.69,21-05-2020,14:54:43
5af478d820299700016d0748,30,female,1,1,41,Ambigous_left,high_enforcement,90,1,20,right,11,14,1000,1.45,left,right,0,-19,0,0.249,16,24,559,1240,1.24,2.69,21-05-2020,14:54:43
5af478d820299700016d0748,30,female,1,1,42,Clear_profit_side,high_enforcement,90,1,20,right,16,9,1000,1.45,right,right,20,-19,1,0.188,16,24,559,1240,1.24,2.69,21-05-2020,14:54:43
5af478d820299700016d0748,30,female,1,1,43,Ambigous_right,high_enforcement,90,1,20,right,14,11,1000,1.45,right,right,20,-19,1,0.236,16,24,559,1240,1.24,2.69,21-05-2020,14:54:43
5af478d820299700016d0748,30,female,1,1,44,Ambigous_left,high_enforcement,90,1,20,right,11,14,1000,1.45,left,right,0,-19,0,0.184,16,24,559,1240,1.24,2.69,21-05-2020,14:54:43
5af478d820299700016d0748,30,female,1,1,45,Ambigous_left,high_enforcement,90,1,20,right,11,14,1000,1.45,left,left,1,0,1,0.498,16,24,559,1240,1.24,2.69,21-05-2020,14:54:43
5af478d820299700016d0748,30,female,1,1,46,Clear_not_profit_side,high_enforcement,90,1,20,right,9,16,1000,1.45,left,left,1,0,1,0.18,16,24,559,1240,1.24,2.69,21-05-2020,14:54:43
5af478d820299700016d0748,30,female,1,1,47,Ambigous_left,high_enforcement,90,1,20,right,11,14,1000,1.45,left,left,1,0,1,0.313,16,24,559,1240,1.24,2.69,21-05-2020,14:54:43
5af478d820299700016d0748,30,female,1,1,48,Clear_not_profit_side,high_enforcement,90,1,20,right,9,16,1000,1.45,left,left,1,0,1,0.25,16,24,559,1240,1.24,2.69,21-05-2020,14:54:43
5af478d820299700016d0748,30,female,1,1,49,Clear_not_profit_side,high_enforcement,90,1,20,right,9,16,1000,1.45,left,left,1,0,1,0.211,16,24,559,1240,1.24,2.69,21-05-2020,14:54:43
5af478d820299700016d0748,30,female,1,1,50,Clear_profit_side,high_enforcement,90,1,20,right,16,9,1000,1.45,right,right,20,-19,1,0.326,16,24,559,1240,1.24,2.69,21-05-2020,14:54:43
5af478d820299700016d0748,30,female,1,1,51,Clear_profit_side,high_enforcement,90,1,20,right,16,9,1000,1.45,right,right,20,-19,1,0.263,16,24,559,1240,1.24,2.69,21-05-2020,14:54:43
5af478d820299700016d0748,30,female,1,1,52,Clear_profit_side,high_enforcement,90,1,20,right,16,9,1000,1.45,right,right,20,-19,1,0.163,16,24,559,1240,1.24,2.69,21-05-2020,14:54:43
5af478d820299700016d0748,30,female,1,1,53,Ambigous_right,high_enforcement,90,0,-,right,14,11,1000,1.45,right,right,20,1,1,0.19,16,24,559,1240,1.24,2.69,21-05-2020,14:54:43
5af478d820299700016d0748,30,female,1,1,54,Clear_profit_side,high_enforcement,90,1,20,right,16,9,1000,1.45,right,right,20,-19,1,0.225,16,24,559,1240,1.24,2.69,21-05-2020,14:54:43
5af478d820299700016d0748,30,female,1,1,55,Ambigous_right,high_enforcement,90,1,20,right,14,11,1000,1.45,right,left,-19,0,0,0.264,16,24,559,1240,1.24,2.69,21-05-2020,14:54:43
5af478d820299700016d0748,30,female,1,1,56,Clear_profit_side,high_enforcement,90,1,20,right,16,9,1000,1.45,right,right,20,-19,1,0.301,16,24,559,1240,1.24,2.69,21-05-2020,14:54:43
5af478d820299700016d0748,30,female,1,1,57,Ambigous_right,high_enforcement,90,1,20,right,14,11,1000,1.45,right,right,20,-19,1,0.175,16,24,559,1240,1.24,2.69,21-05-2020,14:54:43
5af478d820299700016d0748,30,female,1,1,58,Clear_not_profit_side,high_enforcement,90,1,20,right,9,16,1000,1.45,left,left,1,0,1,0.286,16,24,559,1240,1.24,2.69,21-05-2020,14:54:43
5af478d820299700016d0748,30,female,1,1,59,Ambigous_left,high_enforcement,90,1,20,right,11,14,1000,1.45,left,left,1,0,1,0.287,16,24,559,1240,1.24,2.69,21-05-2020,14:54:43
5af478d820299700016d0748,30,female,1,1,60,Ambigous_right,high_enforcement,90,1,20,right,14,11,1000,1.45,right,left,-19,0,0,0.364,16,24,559,1240,1.24,2.69,21-05-2020,14:54:43
5af478d820299700016d0748,30,female,1,1,61,Ambigous_left,high_enforcement,90,1,20,right,11,14,1000,1.45,left,left,1,0,1,0.233,16,24,559,1240,1.24,2.69,21-05-2020,14:54:43
5af478d820299700016d0748,30,female,1,1,62,Clear_not_profit_side,high_enforcement,90,0,-,right,9,16,1000,1.45,left,left,1,20,1,0.288,16,24,559,1240,1.24,2.69,21-05-2020,14:54:43
5af478d820299700016d0748,30,female,1,1,63,Ambigous_left,high_enforcement,90,1,20,right,11,14,1000,1.45,left,right,0,-19,0,0.241,16,24,559,1240,1.24,2.69,21-05-2020,14:54:43
5af478d820299700016d0748,30,female,1,1,64,Clear_not_profit_side,high_enforcement,90,0,-,right,9,16,1000,1.45,left,left,1,20,1,0.217,16,24,559,1240,1.24,2.69,21-05-2020,14:54:43
5af478d820299700016d0748,30,female,1,1,65,Clear_not_profit_side,high_enforcement,90,1,20,right,9,16,1000,1.45,left,left,1,0,1,0.249,16,24,559,1240,1.24,2.69,21-05-2020,14:54:43
5af478d820299700016d0748,30,female,1,1,66,Ambigous_left,high_enforcement,90,1,20,right,11,14,1000,1.45,left,left,1,0,1,0.412,16,24,559,1240,1.24,2.69,21-05-2020,14:54:43
5af478d820299700016d0748,30,female,1,1,67,Ambigous_right,high_enforcement,90,1,20,right,14,11,1000,1.45,right,left,-19,0,0,0.221,16,24,559,1240,1.24,2.69,21-05-2020,14:54:43
5af478d820299700016d0748,30,female,1,1,68,Clear_not_profit_side,high_enforcement,90,1,20,right,9,16,1000,1.45,left,left,1,0,1,0.206,16,24,559,1240,1.24,2.69,21-05-2020,14:54:43
5af478d820299700016d0748,30,female,1,1,69,Clear_not_profit_side,high_enforcement,90,1,20,right,9,16,1000,1.45,left,left,1,0,1,0.261,16,24,559,1240,1.24,2.69,21-05-2020,14:54:43
5af478d820299700016d0748,30,female,1,1,70,Ambigous_right,high_enforcement,90,1,20,right,14,11,1000,1.45,right,right,20,-19,1,0.352,16,24,559,1240,1.24,2.69,21-05-2020,14:54:43
5af478d820299700016d0748,30,female,1,1,71,Ambigous_left,high_enforcement,90,1,20,right,11,14,1000,1.45,left,left,1,0,1,0.345,16,24,559,1240,1.24,2.69,21-05-2020,14:54:43
5af478d820299700016d0748,30,female,1,1,72,Ambigous_left,high_enforcement,90,1,20,right,11,14,1000,1.45,left,left,1,0,1,0.187,16,24,559,1240,1.24,2.69,21-05-2020,14:54:43
5af478d820299700016d0748,30,female,1,1,73,Ambigous_right,high_enforcement,90,1,20,right,14,11,1000,1.45,right,right,20,-19,1,0.229,16,24,559,1240,1.24,2.69,21-05-2020,14:54:43
5af478d820299700016d0748,30,female,1,1,74,Ambigous_left,high_enforcement,90,1,20,right,11,14,1000,1.45,left,left,1,0,1,0.234,16,24,559,1240,1.24,2.69,21-05-2020,14:54:43
5af478d820299700016d0748,30,female,1,1,75,Clear_profit_side,high_enforcement,90,1,20,right,16,9,1000,1.45,right,right,20,-19,1,0.271,16,24,559,1240,1.24,2.69,21-05-2020,14:54:43
5af478d820299700016d0748,30,female,1,1,76,Ambigous_left,high_enforcement,90,1,20,right,11,14,1000,1.45,left,left,1,0,1,0.269,16,24,559,1240,1.24,2.69,21-05-2020,14:54:43
5af478d820299700016d0748,30,female,1,1,77,Clear_not_profit_side,high_enforcement,90,1,20,right,9,16,1000,1.45,left,left,1,0,1,0.247,16,24,559,1240,1.24,2.69,21-05-2020,14:54:43
5af478d820299700016d0748,30,female,1,1,78,Ambigous_left,high_enforcement,90,1,20,right,11,14,1000,1.45,left,left,1,0,1,0.293,16,24,559,1240,1.24,2.69,21-05-2020,14:54:43
5af478d820299700016d0748,30,female,1,1,79,Clear_not_profit_side,high_enforcement,90,1,20,right,9,16,1000,1.45,left,left,1,0,1,0.302,16,24,559,1240,1.24,2.69,21-05-2020,14:54:43
5af478d820299700016d0748,30,female,1,1,80,Clear_not_profit_side,high_enforcement,90,1,20,right,9,16,1000,1.45,left,left,1,0,1,0.249,16,24,559,1240,1.24,2.69,21-05-2020,14:54:43
5af478d820299700016d0748,30,female,1,1,81,Ambigous_right,high_enforcement,90,1,20,right,14,11,1000,1.45,right,right,20,-19,1,0.265,16,24,559,1240,1.24,2.69,21-05-2020,14:54:43
5af478d820299700016d0748,30,female,1,1,82,Clear_not_profit_side,high_enforcement,90,1,20,right,9,16,1000,1.45,left,left,1,0,1,0.265,16,24,559,1240,1.24,2.69,21-05-2020,14:54:43
5af478d820299700016d0748,30,female,1,1,83,Ambigous_right,high_enforcement,90,1,20,right,14,11,1000,1.45,right,left,-19,0,0,0.285,16,24,559,1240,1.24,2.69,21-05-2020,14:54:43
5af478d820299700016d0748,30,female,1,1,84,Clear_not_profit_side,high_enforcement,90,1,20,right,9,16,1000,1.45,left,left,1,0,1,0.22,16,24,559,1240,1.24,2.69,21-05-2020,14:54:43
5af478d820299700016d0748,30,female,1,1,85,Clear_not_profit_side,high_enforcement,90,1,20,right,9,16,1000,1.45,left,right,0,-19,0,0.341,16,24,559,1240,1.24,2.69,21-05-2020,14:54:43
5af478d820299700016d0748,30,female,1,1,86,Clear_profit_side,high_enforcement,90,1,20,right,16,9,1000,1.45,right,left,-19,0,0,0.27,16,24,559,1240,1.24,2.69,21-05-2020,14:54:43
5af478d820299700016d0748,30,female,1,1,87,Clear_not_profit_side,high_enforcement,90,1,20,right,9,16,1000,1.45,left,left,1,0,1,0.239,16,24,559,1240,1.24,2.69,21-05-2020,14:54:43
5af478d820299700016d0748,30,female,1,1,88,Clear_profit_side,high_enforcement,90,1,20,right,16,9,1000,1.45,right,right,20,-19,1,0.288,16,24,559,1240,1.24,2.69,21-05-2020,14:54:43
5af478d820299700016d0748,30,female,1,1,89,Ambigous_right,high_enforcement,90,1,20,right,14,11,1000,1.45,right,right,20,-19,1,0.321,16,24,559,1240,1.24,2.69,21-05-2020,14:54:43
5af478d820299700016d0748,30,female,1,1,90,Ambigous_left,high_enforcement,90,1,20,right,11,14,1000,1.45,left,right,0,-19,0,0.17,16,24,559,1240,1.24,2.69,21-05-2020,14:54:43
5af478d820299700016d0748,30,female,1,1,91,Clear_not_profit_side,high_enforcement,90,1,20,right,9,16,1000,1.45,left,left,1,0,1,0.32,16,24,559,1240,1.24,2.69,21-05-2020,14:54:43
5af478d820299700016d0748,30,female,1,1,92,Ambigous_right,high_enforcement,90,1,20,right,14,11,1000,1.45,right,right,20,-19,1,0.288,16,24,559,1240,1.24,2.69,21-05-2020,14:54:43
5af478d820299700016d0748,30,female,1,1,93,Clear_profit_side,high_enforcement,90,1,20,right,16,9,1000,1.45,right,right,20,-19,1,0.192,16,24,559,1240,1.24,2.69,21-05-2020,14:54:43
5af478d820299700016d0748,30,female,1,1,94,Ambigous_right,high_enforcement,90,1,20,right,14,11,1000,1.45,right,left,-19,0,0,0.363,16,24,559,1240,1.24,2.69,21-05-2020,14:54:43
5af478d820299700016d0748,30,female,1,1,95,Clear_not_profit_side,high_enforcement,90,1,20,right,9,16,1000,1.45,left,left,1,0,1,0.303,16,24,559,1240,1.24,2.69,21-05-2020,14:54:43
5af478d820299700016d0748,30,female,1,1,96,Ambigous_right,high_enforcement,90,1,20,right,14,11,1000,1.45,right,right,20,-19,1,0.311,16,24,559,1240,1.24,2.69,21-05-2020,14:54:43
5af478d820299700016d0748,30,female,1,1,97,Clear_profit_side,high_enforcement,90,1,20,right,16,9,1000,1.45,right,right,20,-19,1,0.253,16,24,559,1240,1.24,2.69,21-05-2020,14:54:43
5af478d820299700016d0748,30,female,1,1,98,Ambigous_left,high_enforcement,90,1,20,right,11,14,1000,1.45,left,left,1,0,1,0.246,16,24,559,1240,1.24,2.69,21-05-2020,14:54:43
5af478d820299700016d0748,30,female,1,1,99,Clear_profit_side,high_enforcement,90,1,20,right,16,9,1000,1.45,right,right,20,-19,1,0.262,16,24,559,1240,1.24,2.69,21-05-2020,14:54:43
5af478d820299700016d0748,30,female,1,1,100,Clear_profit_side,high_enforcement,90,1,20,right,16,9,1000,1.45,right,right,20,-19,1,0.221,16,24,559,1240,1.24,2.69,21-05-2020,14:54:43
5af478d820299700016d0748,30,female,1,2,1,Clear_not_profit_side,high_enforcement,90,1,20,right,9,16,1000,1.45,left,left,1,0,1,0.225,8,24,681,1240,1.24,2.69,21-05-2020,14:54:43
5af478d820299700016d0748,30,female,1,2,2,Ambigous_left,high_enforcement,90,1,20,right,11,14,1000,1.45,left,left,1,0,1,0.241,8,24,681,1240,1.24,2.69,21-05-2020,14:54:43
5af478d820299700016d0748,30,female,1,2,3,Ambigous_right,high_enforcement,90,1,20,right,14,11,1000,1.45,right,right,20,-19,1,0.256,8,24,681,1240,1.24,2.69,21-05-2020,14:54:43
5af478d820299700016d0748,30,female,1,2,4,Clear_not_profit_side,high_enforcement,90,1,20,right,9,16,1000,1.45,left,left,1,0,1,0.237,8,24,681,1240,1.24,2.69,21-05-2020,14:54:43
5af478d820299700016d0748,30,female,1,2,5,Clear_not_profit_side,high_enforcement,90,1,20,right,9,16,1000,1.45,left,left,1,0,1,0.264,8,24,681,1240,1.24,2.69,21-05-2020,14:54:43
5af478d820299700016d0748,30,female,1,2,6,Clear_profit_side,high_enforcement,90,1,20,right,16,9,1000,1.45,right,right,20,-19,1,0.272,8,24,681,1240,1.24,2.69,21-05-2020,14:54:43
5af478d820299700016d0748,30,female,1,2,7,Clear_profit_side,high_enforcement,90,1,20,right,16,9,1000,1.45,right,right,20,-19,1,0.27,8,24,681,1240,1.24,2.69,21-05-2020,14:54:43
5af478d820299700016d0748,30,female,1,2,8,Clear_not_profit_side,high_enforcement,90,1,20,right,9,16,1000,1.45,left,left,1,0,1,0.249,8,24,681,1240,1.24,2.69,21-05-2020,14:54:43
5af478d820299700016d0748,30,female,1,2,9,Clear_not_profit_side,high_enforcement,90,1,20,right,9,16,1000,1.45,left,left,1,0,1,0.239,8,24,681,1240,1.24,2.69,21-05-2020,14:54:43
5af478d820299700016d0748,30,female,1,2,10,Clear_not_profit_side,high_enforcement,90,1,20,right,9,16,1000,1.45,left,left,1,0,1,0.215,8,24,681,1240,1.24,2.69,21-05-2020,14:54:43
5af478d820299700016d0748,30,female,1,2,11,Ambigous_right,high_enforcement,90,1,20,right,14,11,1000,1.45,right,right,20,-19,1,0.314,8,24,681,1240,1.24,2.69,21-05-2020,14:54:43
5af478d820299700016d0748,30,female,1,2,12,Ambigous_left,high_enforcement,90,1,20,right,11,14,1000,1.45,left,left,1,0,1,0.248,8,24,681,1240,1.24,2.69,21-05-2020,14:54:43
5af478d820299700016d0748,30,female,1,2,13,Clear_profit_side,high_enforcement,90,0,-,right,16,9,1000,1.45,right,right,20,1,1,0.233,8,24,681,1240,1.24,2.69,21-05-2020,14:54:43
5af478d820299700016d0748,30,female,1,2,14,Clear_not_profit_side,high_enforcement,90,1,20,right,9,16,1000,1.45,left,left,1,0,1,0.317,8,24,681,1240,1.24,2.69,21-05-2020,14:54:43
5af478d820299700016d0748,30,female,1,2,15,Clear_not_profit_side,high_enforcement,90,1,20,right,9,16,1000,1.45,left,left,1,0,1,0.241,8,24,681,1240,1.24,2.69,21-05-2020,14:54:43
5af478d820299700016d0748,30,female,1,2,16,Clear_not_profit_side,high_enforcement,90,1,20,right,9,16,1000,1.45,left,left,1,0,1,0.279,8,24,681,1240,1.24,2.69,21-05-2020,14:54:43
5af478d820299700016d0748,30,female,1,2,17,Clear_not_profit_side,high_enforcement,90,1,20,right,9,16,1000,1.45,left,left,1,0,1,0.235,8,24,681,1240,1.24,2.69,21-05-2020,14:54:43
5af478d820299700016d0748,30,female,1,2,18,Clear_not_profit_side,high_enforcement,90,1,20,right,9,16,1000,1.45,left,left,1,0,1,0.228,8,24,681,1240,1.24,2.69,21-05-2020,14:54:43
5af478d820299700016d0748,30,female,1,2,19,Ambigous_right,high_enforcement,90,1,20,right,14,11,1000,1.45,right,right,20,-19,1,0.241,8,24,681,1240,1.24,2.69,21-05-2020,14:54:43
5af478d820299700016d0748,30,female,1,2,20,Clear_not_profit_side,high_enforcement,90,1,20,right,9,16,1000,1.45,left,left,1,0,1,0.229,8,24,681,1240,1.24,2.69,21-05-2020,14:54:43
5af478d820299700016d0748,30,female,1,2,21,Ambigous_right,high_enforcement,90,1,20,right,14,11,1000,1.45,right,right,20,-19,1,0.225,8,24,681,1240,1.24,2.69,21-05-2020,14:54:43
5af478d820299700016d0748,30,female,1,2,22,Ambigous_right,high_enforcement,90,1,20,right,14,11,1000,1.45,right,right,20,-19,1,0.219,8,24,681,1240,1.24,2.69,21-05-2020,14:54:43
5af478d820299700016d0748,30,female,1,2,23,Ambigous_right,high_enforcement,90,1,20,right,14,11,1000,1.45,right,right,20,-19,1,0.27,8,24,681,1240,1.24,2.69,21-05-2020,14:54:43
5af478d820299700016d0748,30,female,1,2,24,Clear_not_profit_side,high_enforcement,90,1,20,right,9,16,1000,1.45,left,left,1,0,1,0.229,8,24,681,1240,1.24,2.69,21-05-2020,14:54:43
5af478d820299700016d0748,30,female,1,2,25,Ambigous_left,high_enforcement,90,1,20,right,11,14,1000,1.45,left,right,0,-19,0,0.254,8,24,681,1240,1.24,2.69,21-05-2020,14:54:43
5af478d820299700016d0748,30,female,1,2,26,Clear_profit_side,high_enforcement,90,1,20,right,16,9,1000,1.45,right,right,20,-19,1,0.225,8,24,681,1240,1.24,2.69,21-05-2020,14:54:43
5af478d820299700016d0748,30,female,1,2,27,Clear_profit_side,high_enforcement,90,1,20,right,16,9,1000,1.45,right,right,20,-19,1,0.232,8,24,681,1240,1.24,2.69,21-05-2020,14:54:43
5af478d820299700016d0748,30,female,1,2,28,Ambigous_right,high_enforcement,90,1,20,right,14,11,1000,1.45,right,left,-19,0,0,0.597,8,24,681,1240,1.24,2.69,21-05-2020,14:54:43
5af478d820299700016d0748,30,female,1,2,29,Clear_not_profit_side,high_enforcement,90,1,20,right,9,16,1000,1.45,left,left,1,0,1,0.222,8,24,681,1240,1.24,2.69,21-05-2020,14:54:43
5af478d820299700016d0748,30,female,1,2,30,Ambigous_right,high_enforcement,90,1,20,right,14,11,1000,1.45,right,right,20,-19,1,0.234,8,24,681,1240,1.24,2.69,21-05-2020,14:54:43
5af478d820299700016d0748,30,female,1,2,31,Ambigous_left,high_enforcement,90,0,-,right,11,14,1000,1.45,left,left,1,20,1,0.399,8,24,681,1240,1.24,2.69,21-05-2020,14:54:43
5af478d820299700016d0748,30,female,1,2,32,Ambigous_right,high_enforcement,90,1,20,right,14,11,1000,1.45,right,right,20,-19,1,0.463,8,24,681,1240,1.24,2.69,21-05-2020,14:54:43
5af478d820299700016d0748,30,female,1,2,33,Clear_profit_side,high_enforcement,90,1,20,right,16,9,1000,1.45,right,right,20,-19,1,0.26,8,24,681,1240,1.24,2.69,21-05-2020,14:54:43
5af478d820299700016d0748,30,female,1,2,34,Ambigous_right,high_enforcement,90,1,20,right,14,11,1000,1.45,right,right,20,-19,1,0.263,8,24,681,1240,1.24,2.69,21-05-2020,14:54:43
5af478d820299700016d0748,30,female,1,2,35,Ambigous_right,high_enforcement,90,1,20,right,14,11,1000,1.45,right,right,20,-19,1,0.165,8,24,681,1240,1.24,2.69,21-05-2020,14:54:43
5af478d820299700016d0748,30,female,1,2,36,Ambigous_left,high_enforcement,90,1,20,right,11,14,1000,1.45,left,left,1,0,1,0.221,8,24,681,1240,1.24,2.69,21-05-2020,14:54:43
5af478d820299700016d0748,30,female,1,2,37,Clear_not_profit_side,high_enforcement,90,1,20,right,9,16,1000,1.45,left,left,1,0,1,0.274,8,24,681,1240,1.24,2.69,21-05-2020,14:54:43
5af478d820299700016d0748,30,female,1,2,38,Ambigous_right,high_enforcement,90,1,20,right,14,11,1000,1.45,right,left,-19,0,0,0.236,8,24,681,1240,1.24,2.69,21-05-2020,14:54:43
5af478d820299700016d0748,30,female,1,2,39,Clear_not_profit_side,high_enforcement,90,1,20,right,9,16,1000,1.45,left,left,1,0,1,0.359,8,24,681,1240,1.24,2.69,21-05-2020,14:54:43
5af478d820299700016d0748,30,female,1,2,40,Clear_not_profit_side,high_enforcement,90,1,20,right,9,16,1000,1.45,left,left,1,0,1,0.236,8,24,681,1240,1.24,2.69,21-05-2020,14:54:43
5af478d820299700016d0748,30,female,1,2,41,Clear_profit_side,high_enforcement,90,1,20,right,16,9,1000,1.45,right,right,20,-19,1,0.232,8,24,681,1240,1.24,2.69,21-05-2020,14:54:43
5af478d820299700016d0748,30,female,1,2,42,Ambigous_left,high_enforcement,90,1,20,right,11,14,1000,1.45,left,left,1,0,1,0.368,8,24,681,1240,1.24,2.69,21-05-2020,14:54:43
5af478d820299700016d0748,30,female,1,2,43,Ambigous_left,high_enforcement,90,1,20,right,11,14,1000,1.45,left,left,1,0,1,0.236,8,24,681,1240,1.24,2.69,21-05-2020,14:54:43
5af478d820299700016d0748,30,female,1,2,44,Ambigous_right,high_enforcement,90,1,20,right,14,11,1000,1.45,right,right,20,-19,1,0.245,8,24,681,1240,1.24,2.69,21-05-2020,14:54:43
5af478d820299700016d0748,30,female,1,2,45,Clear_not_profit_side,high_enforcement,90,1,20,right,9,16,1000,1.45,left,left,1,0,1,0.227,8,24,681,1240,1.24,2.69,21-05-2020,14:54:43
5af478d820299700016d0748,30,female,1,2,46,Clear_profit_side,high_enforcement,90,1,20,right,16,9,1000,1.45,right,right,20,-19,1,0.307,8,24,681,1240,1.24,2.69,21-05-2020,14:54:43
5af478d820299700016d0748,30,female,1,2,47,Ambigous_left,high_enforcement,90,1,20,right,11,14,1000,1.45,left,left,1,0,1,0.328,8,24,681,1240,1.24,2.69,21-05-2020,14:54:43
5af478d820299700016d0748,30,female,1,2,48,Ambigous_right,high_enforcement,90,1,20,right,14,11,1000,1.45,right,right,20,-19,1,0.285,8,24,681,1240,1.24,2.69,21-05-2020,14:54:43
5af478d820299700016d0748,30,female,1,2,49,Clear_profit_side,high_enforcement,90,1,20,right,16,9,1000,1.45,right,left,-19,0,0,0.362,8,24,681,1240,1.24,2.69,21-05-2020,14:54:43
5af478d820299700016d0748,30,female,1,2,50,Clear_profit_side,high_enforcement,90,1,20,right,16,9,1000,1.45,right,right,20,-19,1,0.239,8,24,681,1240,1.24,2.69,21-05-2020,14:54:43
5af478d820299700016d0748,30,female,1,2,51,Clear_not_profit_side,high_enforcement,90,1,20,right,9,16,1000,1.45,left,left,1,0,1,0.226,8,24,681,1240,1.24,2.69,21-05-2020,14:54:43
5af478d820299700016d0748,30,female,1,2,52,Ambigous_left,high_enforcement,90,1,20,right,11,14,1000,1.45,left,left,1,0,1,0.366,8,24,681,1240,1.24,2.69,21-05-2020,14:54:43
5af478d820299700016d0748,30,female,1,2,53,Ambigous_right,high_enforcement,90,1,20,right,14,11,1000,1.45,right,right,20,-19,1,0.233,8,24,681,1240,1.24,2.69,21-05-2020,14:54:43
5af478d820299700016d0748,30,female,1,2,54,Clear_profit_side,high_enforcement,90,1,20,right,16,9,1000,1.45,right,left,-19,0,0,0.354,8,24,681,1240,1.24,2.69,21-05-2020,14:54:43
5af478d820299700016d0748,30,female,1,2,55,Clear_not_profit_side,high_enforcement,90,0,-,right,9,16,1000,1.45,left,left,1,20,1,0.297,8,24,681,1240,1.24,2.69,21-05-2020,14:54:43
5af478d820299700016d0748,30,female,1,2,56,Ambigous_right,high_enforcement,90,0,-,right,14,11,1000,1.45,right,right,20,1,1,0.267,8,24,681,1240,1.24,2.69,21-05-2020,14:54:43
5af478d820299700016d0748,30,female,1,2,57,Clear_not_profit_side,high_enforcement,90,1,20,right,9,16,1000,1.45,left,left,1,0,1,0.222,8,24,681,1240,1.24,2.69,21-05-2020,14:54:43
5af478d820299700016d0748,30,female,1,2,58,Clear_not_profit_side,high_enforcement,90,0,-,right,9,16,1000,1.45,left,left,1,20,1,0.265,8,24,681,1240,1.24,2.69,21-05-2020,14:54:43
5af478d820299700016d0748,30,female,1,2,59,Clear_profit_side,high_enforcement,90,1,20,right,16,9,1000,1.45,right,right,20,-19,1,0.22,8,24,681,1240,1.24,2.69,21-05-2020,14:54:43
5af478d820299700016d0748,30,female,1,2,60,Clear_not_profit_side,high_enforcement,90,1,20,right,9,16,1000,1.45,left,left,1,0,1,0.218,8,24,681,1240,1.24,2.69,21-05-2020,14:54:43
5af478d820299700016d0748,30,female,1,2,61,Clear_not_profit_side,high_enforcement,90,1,20,right,9,16,1000,1.45,left,left,1,0,1,0.232,8,24,681,1240,1.24,2.69,21-05-2020,14:54:43
5af478d820299700016d0748,30,female,1,2,62,Clear_not_profit_side,high_enforcement,90,1,20,right,9,16,1000,1.45,left,left,1,0,1,0.22,8,24,681,1240,1.24,2.69,21-05-2020,14:54:43
5af478d820299700016d0748,30,female,1,2,63,Ambigous_left,high_enforcement,90,1,20,right,11,14,1000,1.45,left,left,1,0,1,0.231,8,24,681,1240,1.24,2.69,21-05-2020,14:54:43
5af478d820299700016d0748,30,female,1,2,64,Ambigous_right,high_enforcement,90,1,20,right,14,11,1000,1.45,right,right,20,-19,1,0.269,8,24,681,1240,1.24,2.69,21-05-2020,14:54:43
5af478d820299700016d0748,30,female,1,2,65,Ambigous_right,high_enforcement,90,1,20,right,14,11,1000,1.45,right,right,20,-19,1,0.299,8,24,681,1240,1.24,2.69,21-05-2020,14:54:43
5af478d820299700016d0748,30,female,1,2,66,Clear_not_profit_side,high_enforcement,90,1,20,right,9,16,1000,1.45,left,left,1,0,1,0.226,8,24,681,1240,1.24,2.69,21-05-2020,14:54:43
5af478d820299700016d0748,30,female,1,2,67,Clear_not_profit_side,high_enforcement,90,1,20,right,9,16,1000,1.45,left,left,1,0,1,0.257,8,24,681,1240,1.24,2.69,21-05-2020,14:54:43
5af478d820299700016d0748,30,female,1,2,68,Ambigous_right,high_enforcement,90,1,20,right,14,11,1000,1.45,right,right,20,-19,1,0.259,8,24,681,1240,1.24,2.69,21-05-2020,14:54:43
5af478d820299700016d0748,30,female,1,2,69,Ambigous_left,high_enforcement,90,1,20,right,11,14,1000,1.45,left,left,1,0,1,0.231,8,24,681,1240,1.24,2.69,21-05-2020,14:54:43
5af478d820299700016d0748,30,female,1,2,70,Ambigous_left,high_enforcement,90,1,20,right,11,14,1000,1.45,left,left,1,0,1,0.379,8,24,681,1240,1.24,2.69,21-05-2020,14:54:43
5af478d820299700016d0748,30,female,1,2,71,Ambigous_left,high_enforcement,90,1,20,right,11,14,1000,1.45,left,left,1,0,1,0.271,8,24,681,1240,1.24,2.69,21-05-2020,14:54:43
5af478d820299700016d0748,30,female,1,2,72,Ambigous_right,high_enforcement,90,1,20,right,14,11,1000,1.45,right,right,20,-19,1,0.288,8,24,681,1240,1.24,2.69,21-05-2020,14:54:43
5af478d820299700016d0748,30,female,1,2,73,Ambigous_right,high_enforcement,90,1,20,right,14,11,1000,1.45,right,left,-19,0,0,0.256,8,24,681,1240,1.24,2.69,21-05-2020,14:54:43
5af478d820299700016d0748,30,female,1,2,74,Ambigous_left,high_enforcement,90,1,20,right,11,14,1000,1.45,left,left,1,0,1,0.539,8,24,681,1240,1.24,2.69,21-05-2020,14:54:43
5af478d820299700016d0748,30,female,1,2,75,Ambigous_left,high_enforcement,90,1,20,right,11,14,1000,1.45,left,left,1,0,1,0.291,8,24,681,1240,1.24,2.69,21-05-2020,14:54:43
5af478d820299700016d0748,30,female,1,2,76,Ambigous_left,high_enforcement,90,1,20,right,11,14,1000,1.45,left,left,1,0,1,0.319,8,24,681,1240,1.24,2.69,21-05-2020,14:54:43
5af478d820299700016d0748,30,female,1,2,77,Ambigous_left,high_enforcement,90,1,20,right,11,14,1000,1.45,left,left,1,0,1,0.215,8,24,681,1240,1.24,2.69,21-05-2020,14:54:43
5af478d820299700016d0748,30,female,1,2,78,Clear_not_profit_side,high_enforcement,90,1,20,right,9,16,1000,1.45,left,left,1,0,1,0.263,8,24,681,1240,1.24,2.69,21-05-2020,14:54:43
5af478d820299700016d0748,30,female,1,2,79,Clear_profit_side,high_enforcement,90,1,20,right,16,9,1000,1.45,right,right,20,-19,1,0.327,8,24,681,1240,1.24,2.69,21-05-2020,14:54:43
5af478d820299700016d0748,30,female,1,2,80,Ambigous_left,high_enforcement,90,1,20,right,11,14,1000,1.45,left,right,0,-19,0,0.241,8,24,681,1240,1.24,2.69,21-05-2020,14:54:43
5af478d820299700016d0748,30,female,1,2,81,Clear_not_profit_side,high_enforcement,90,1,20,right,9,16,1000,1.45,left,left,1,0,1,0.224,8,24,681,1240,1.24,2.69,21-05-2020,14:54:43
5af478d820299700016d0748,30,female,1,2,82,Clear_not_profit_side,high_enforcement,90,1,20,right,9,16,1000,1.45,left,left,1,0,1,0.239,8,24,681,1240,1.24,2.69,21-05-2020,14:54:43
5af478d820299700016d0748,30,female,1,2,83,Clear_not_profit_side,high_enforcement,90,1,20,right,9,16,1000,1.45,left,left,1,0,1,0.277,8,24,681,1240,1.24,2.69,21-05-2020,14:54:43
5af478d820299700016d0748,30,female,1,2,84,Clear_profit_side,high_enforcement,90,1,20,right,16,9,1000,1.45,right,right,20,-19,1,0.239,8,24,681,1240,1.24,2.69,21-05-2020,14:54:43
5af478d820299700016d0748,30,female,1,2,85,Ambigous_left,high_enforcement,90,1,20,right,11,14,1000,1.45,left,left,1,0,1,0.249,8,24,681,1240,1.24,2.69,21-05-2020,14:54:43
5af478d820299700016d0748,30,female,1,2,86,Ambigous_left,high_enforcement,90,0,-,right,11,14,1000,1.45,left,left,1,20,1,0.226,8,24,681,1240,1.24,2.69,21-05-2020,14:54:43
5af478d820299700016d0748,30,female,1,2,87,Ambigous_left,high_enforcement,90,1,20,right,11,14,1000,1.45,left,right,0,-19,0,0.33,8,24,681,1240,1.24,2.69,21-05-2020,14:54:43
5af478d820299700016d0748,30,female,1,2,88,Ambigous_left,high_enforcement,90,1,20,right,11,14,1000,1.45,left,left,1,0,1,0.232,8,24,681,1240,1.24,2.69,21-05-2020,14:54:43
5af478d820299700016d0748,30,female,1,2,89,Clear_profit_side,high_enforcement,90,1,20,right,16,9,1000,1.45,right,right,20,-19,1,0.22,8,24,681,1240,1.24,2.69,21-05-2020,14:54:43
5af478d820299700016d0748,30,female,1,2,90,Clear_not_profit_side,high_enforcement,90,1,20,right,9,16,1000,1.45,left,left,1,0,1,0.225,8,24,681,1240,1.24,2.69,21-05-2020,14:54:43
5af478d820299700016d0748,30,female,1,2,91,Ambigous_right,high_enforcement,90,1,20,right,14,11,1000,1.45,right,right,20,-19,1,0.359,8,24,681,1240,1.24,2.69,21-05-2020,14:54:43
5af478d820299700016d0748,30,female,1,2,92,Ambigous_left,high_enforcement,90,1,20,right,11,14,1000,1.45,left,left,1,0,1,0.259,8,24,681,1240,1.24,2.69,21-05-2020,14:54:43
5af478d820299700016d0748,30,female,1,2,93,Ambigous_right,high_enforcement,90,1,20,right,14,11,1000,1.45,right,right,20,-19,1,0.344,8,24,681,1240,1.24,2.69,21-05-2020,14:54:43
5af478d820299700016d0748,30,female,1,2,94,Clear_not_profit_side,high_enforcement,90,1,20,right,9,16,1000,1.45,left,left,1,0,1,0.212,8,24,681,1240,1.24,2.69,21-05-2020,14:54:43
5af478d820299700016d0748,30,female,1,2,95,Clear_not_profit_side,high_enforcement,90,1,20,right,9,16,1000,1.45,left,left,1,0,1,0.229,8,24,681,1240,1.24,2.69,21-05-2020,14:54:43
5af478d820299700016d0748,30,female,1,2,96,Ambigous_left,high_enforcement,90,1,20,right,11,14,1000,1.45,left,left,1,0,1,0.25,8,24,681,1240,1.24,2.69,21-05-2020,14:54:43
5af478d820299700016d0748,30,female,1,2,97,Ambigous_left,high_enforcement,90,1,20,right,11,14,1000,1.45,left,left,1,0,1,0.366,8,24,681,1240,1.24,2.69,21-05-2020,14:54:43
5af478d820299700016d0748,30,female,1,2,98,Ambigous_right,high_enforcement,90,1,20,right,14,11,1000,1.45,right,right,20,-19,1,0.239,8,24,681,1240,1.24,2.69,21-05-2020,14:54:43
5af478d820299700016d0748,30,female,1,2,99,Clear_profit_side,high_enforcement,90,1,20,right,16,9,1000,1.45,right,right,20,-19,1,0.269,8,24,681,1240,1.24,2.69,21-05-2020,14:54:43
5af478d820299700016d0748,30,female,1,2,100,Ambigous_right,high_enforcement,90,1,20,right,14,11,1000,1.45,right,right,20,-19,1,0.261,8,24,681,1240,1.24,2.69,21-05-2020,14:54:43
5b7de8361e7bc100011dc574,56,female,1,1,1,Clear_profit_side,no_enforcement2,0,0,-,right,16,9,1000,1.45,right,right,2,1,1,0.191,6,15,139,283,0.283,1.7329999999999999,21-05-2020,15:6:42
5b7de8361e7bc100011dc574,56,female,1,1,2,Ambigous_right,no_enforcement2,0,0,-,right,14,11,1000,1.45,right,right,2,1,1,0.085,6,15,139,283,0.283,1.7329999999999999,21-05-2020,15:6:42
5b7de8361e7bc100011dc574,56,female,1,1,3,Clear_profit_side,no_enforcement2,0,0,-,right,16,9,1000,1.45,right,right,2,1,1,0.08,6,15,139,283,0.283,1.7329999999999999,21-05-2020,15:6:42
5b7de8361e7bc100011dc574,56,female,1,1,4,Ambigous_right,no_enforcement2,0,0,-,right,14,11,1000,1.45,right,right,2,1,1,0.11,6,15,139,283,0.283,1.7329999999999999,21-05-2020,15:6:42
5b7de8361e7bc100011dc574,56,female,1,1,5,Ambigous_left,no_enforcement2,0,0,-,right,11,14,1000,1.45,left,left,1,2,1,0.061,6,15,139,283,0.283,1.7329999999999999,21-05-2020,15:6:42
5b7de8361e7bc100011dc574,56,female,1,1,6,Ambigous_left,no_enforcement2,0,0,-,right,11,14,1000,1.45,left,left,1,2,1,0.064,6,15,139,283,0.283,1.7329999999999999,21-05-2020,15:6:42
5b7de8361e7bc100011dc574,56,female,1,1,7,Clear_not_profit_side,no_enforcement2,0,0,-,right,9,16,1000,1.45,left,left,1,2,1,0.062,6,15,139,283,0.283,1.7329999999999999,21-05-2020,15:6:42
5b7de8361e7bc100011dc574,56,female,1,1,8,Ambigous_left,no_enforcement2,0,0,-,right,11,14,1000,1.45,left,left,1,2,1,0.058,6,15,139,283,0.283,1.7329999999999999,21-05-2020,15:6:42
5b7de8361e7bc100011dc574,56,female,1,1,9,Ambigous_left,no_enforcement2,0,0,-,right,11,14,1000,1.45,left,left,1,2,1,0.068,6,15,139,283,0.283,1.7329999999999999,21-05-2020,15:6:42
5b7de8361e7bc100011dc574,56,female,1,1,10,Clear_not_profit_side,no_enforcement2,0,0,-,right,9,16,1000,1.45,left,left,1,2,1,0.059,6,15,139,283,0.283,1.7329999999999999,21-05-2020,15:6:42
5b7de8361e7bc100011dc574,56,female,1,1,11,Ambigous_left,no_enforcement2,0,0,-,right,11,14,1000,1.45,left,left,1,2,1,0.052,6,15,139,283,0.283,1.7329999999999999,21-05-2020,15:6:42
5b7de8361e7bc100011dc574,56,female,1,1,12,Ambigous_right,no_enforcement2,0,0,-,right,14,11,1000,1.45,right,right,2,1,1,0.087,6,15,139,283,0.283,1.7329999999999999,21-05-2020,15:6:42
5b7de8361e7bc100011dc574,56,female,1,1,13,Clear_profit_side,no_enforcement2,0,0,-,right,16,9,1000,1.45,right,right,2,1,1,0.048,6,15,139,283,0.283,1.7329999999999999,21-05-2020,15:6:42
5b7de8361e7bc100011dc574,56,female,1,1,14,Ambigous_right,no_enforcement2,0,0,-,right,14,11,1000,1.45,right,right,2,1,1,0.045,6,15,139,283,0.283,1.7329999999999999,21-05-2020,15:6:42
5b7de8361e7bc100011dc574,56,female,1,1,15,Ambigous_right,no_enforcement2,0,0,-,right,14,11,1000,1.45,right,right,2,1,1,0.075,6,15,139,283,0.283,1.7329999999999999,21-05-2020,15:6:42
5b7de8361e7bc100011dc574,56,female,1,1,16,Ambigous_right,no_enforcement2,0,0,-,right,14,11,1000,1.45,right,right,2,1,1,0.052,6,15,139,283,0.283,1.7329999999999999,21-05-2020,15:6:42
5b7de8361e7bc100011dc574,56,female,1,1,17,Ambigous_left,no_enforcement2,0,0,-,right,11,14,1000,1.45,left,left,1,2,1,0.062,6,15,139,283,0.283,1.7329999999999999,21-05-2020,15:6:42
5b7de8361e7bc100011dc574,56,female,1,1,18,Clear_profit_side,no_enforcement2,0,0,-,right,16,9,1000,1.45,right,right,2,1,1,0.057,6,15,139,283,0.283,1.7329999999999999,21-05-2020,15:6:42
5b7de8361e7bc100011dc574,56,female,1,1,19,Ambigous_left,no_enforcement2,0,0,-,right,11,14,1000,1.45,left,left,1,2,1,0.055,6,15,139,283,0.283,1.7329999999999999,21-05-2020,15:6:42
5b7de8361e7bc100011dc574,56,female,1,1,20,Clear_not_profit_side,no_enforcement2,0,0,-,right,9,16,1000,1.45,left,left,1,2,1,0.051,6,15,139,283,0.283,1.7329999999999999,21-05-2020,15:6:42
5b7de8361e7bc100011dc574,56,female,1,1,21,Clear_profit_side,no_enforcement2,0,0,-,right,16,9,1000,1.45,right,right,2,1,1,0.055,6,15,139,283,0.283,1.7329999999999999,21-05-2020,15:6:42
5b7de8361e7bc100011dc574,56,female,1,1,22,Ambigous_left,no_enforcement2,0,0,-,right,11,14,1000,1.45,left,left,1,2,1,0.064,6,15,139,283,0.283,1.7329999999999999,21-05-2020,15:6:42
5b7de8361e7bc100011dc574,56,female,1,1,23,Clear_not_profit_side,no_enforcement2,0,0,-,right,9,16,1000,1.45,left,left,1,2,1,0.046,6,15,139,283,0.283,1.7329999999999999,21-05-2020,15:6:42
5b7de8361e7bc100011dc574,56,female,1,1,24,Clear_profit_side,no_enforcement2,0,0,-,right,16,9,1000,1.45,right,right,2,1,1,0.06,6,15,139,283,0.283,1.7329999999999999,21-05-2020,15:6:42
5b7de8361e7bc100011dc574,56,female,1,1,25,Clear_not_profit_side,no_enforcement2,0,0,-,right,9,16,1000,1.45,left,left,1,2,1,0.057,6,15,139,283,0.283,1.7329999999999999,21-05-2020,15:6:42
5b7de8361e7bc100011dc574,56,female,1,1,26,Clear_not_profit_side,no_enforcement2,0,0,-,right,9,16,1000,1.45,left,left,1,2,1,0.044,6,15,139,283,0.283,1.7329999999999999,21-05-2020,15:6:42
5b7de8361e7bc100011dc574,56,female,1,1,27,Clear_not_profit_side,no_enforcement2,0,0,-,right,9,16,1000,1.45,left,left,1,2,1,0.079,6,15,139,283,0.283,1.7329999999999999,21-05-2020,15:6:42
5b7de8361e7bc100011dc574,56,female,1,1,28,Clear_not_profit_side,no_enforcement2,0,0,-,right,9,16,1000,1.45,left,left,1,2,1,0.052,6,15,139,283,0.283,1.7329999999999999,21-05-2020,15:6:42
5b7de8361e7bc100011dc574,56,female,1,1,29,Clear_not_profit_side,no_enforcement2,0,0,-,right,9,16,1000,1.45,left,left,1,2,1,0.071,6,15,139,283,0.283,1.7329999999999999,21-05-2020,15:6:42
5b7de8361e7bc100011dc574,56,female,1,1,30,Ambigous_left,no_enforcement2,0,0,-,right,11,14,1000,1.45,left,left,1,2,1,0.057,6,15,139,283,0.283,1.7329999999999999,21-05-2020,15:6:42
5b7de8361e7bc100011dc574,56,female,1,1,31,Ambigous_right,no_enforcement2,0,0,-,right,14,11,1000,1.45,right,right,2,1,1,0.063,6,15,139,283,0.283,1.7329999999999999,21-05-2020,15:6:42
5b7de8361e7bc100011dc574,56,female,1,1,32,Ambigous_right,no_enforcement2,0,0,-,right,14,11,1000,1.45,right,right,2,1,1,0.048,6,15,139,283,0.283,1.7329999999999999,21-05-2020,15:6:42
5b7de8361e7bc100011dc574,56,female,1,1,33,Clear_not_profit_side,no_enforcement2,0,0,-,right,9,16,1000,1.45,left,left,1,2,1,0.048,6,15,139,283,0.283,1.7329999999999999,21-05-2020,15:6:42
5b7de8361e7bc100011dc574,56,female,1,1,34,Clear_profit_side,no_enforcement2,0,0,-,right,16,9,1000,1.45,right,right,2,1,1,0.053,6,15,139,283,0.283,1.7329999999999999,21-05-2020,15:6:42
5b7de8361e7bc100011dc574,56,female,1,1,35,Clear_not_profit_side,no_enforcement2,0,0,-,right,9,16,1000,1.45,left,left,1,2,1,0.055,6,15,139,283,0.283,1.7329999999999999,21-05-2020,15:6:42
5b7de8361e7bc100011dc574,56,female,1,1,36,Ambigous_left,no_enforcement2,0,0,-,right,11,14,1000,1.45,left,left,1,2,1,0.047,6,15,139,283,0.283,1.7329999999999999,21-05-2020,15:6:42
5b7de8361e7bc100011dc574,56,female,1,1,37,Ambigous_right,no_enforcement2,0,0,-,right,14,11,1000,1.45,right,left,1,2,0,0.064,6,15,139,283,0.283,1.7329999999999999,21-05-2020,15:6:42
5b7de8361e7bc100011dc574,56,female,1,1,38,Clear_not_profit_side,no_enforcement2,0,0,-,right,9,16,1000,1.45,left,left,1,2,1,0.064,6,15,139,283,0.283,1.7329999999999999,21-05-2020,15:6:42
5b7de8361e7bc100011dc574,56,female,1,1,39,Clear_profit_side,no_enforcement2,0,0,-,right,16,9,1000,1.45,right,right,2,1,1,0.056,6,15,139,283,0.283,1.7329999999999999,21-05-2020,15:6:42
5b7de8361e7bc100011dc574,56,female,1,1,40,Clear_not_profit_side,no_enforcement2,0,0,-,right,9,16,1000,1.45,left,left,1,2,1,0.059,6,15,139,283,0.283,1.7329999999999999,21-05-2020,15:6:42
5b7de8361e7bc100011dc574,56,female,1,1,41,Ambigous_right,no_enforcement2,0,0,-,right,14,11,1000,1.45,right,right,2,1,1,0.061,6,15,139,283,0.283,1.7329999999999999,21-05-2020,15:6:42
5b7de8361e7bc100011dc574,56,female,1,1,42,Clear_profit_side,no_enforcement2,0,0,-,right,16,9,1000,1.45,right,right,2,1,1,0.048,6,15,139,283,0.283,1.7329999999999999,21-05-2020,15:6:42
5b7de8361e7bc100011dc574,56,female,1,1,43,Ambigous_right,no_enforcement2,0,0,-,right,14,11,1000,1.45,right,left,1,2,0,0.065,6,15,139,283,0.283,1.7329999999999999,21-05-2020,15:6:42
5b7de8361e7bc100011dc574,56,female,1,1,44,Ambigous_right,no_enforcement2,0,0,-,right,14,11,1000,1.45,right,right,2,1,1,0.053,6,15,139,283,0.283,1.7329999999999999,21-05-2020,15:6:42
5b7de8361e7bc100011dc574,56,female,1,1,45,Ambigous_left,no_enforcement2,0,0,-,right,11,14,1000,1.45,left,left,1,2,1,0.071,6,15,139,283,0.283,1.7329999999999999,21-05-2020,15:6:42
5b7de8361e7bc100011dc574,56,female,1,1,46,Clear_not_profit_side,no_enforcement2,0,0,-,right,9,16,1000,1.45,left,left,1,2,1,0.064,6,15,139,283,0.283,1.7329999999999999,21-05-2020,15:6:42
5b7de8361e7bc100011dc574,56,female,1,1,47,Ambigous_right,no_enforcement2,0,0,-,right,14,11,1000,1.45,right,right,2,1,1,0.066,6,15,139,283,0.283,1.7329999999999999,21-05-2020,15:6:42
5b7de8361e7bc100011dc574,56,female,1,1,48,Ambigous_left,no_enforcement2,0,0,-,right,11,14,1000,1.45,left,left,1,2,1,0.067,6,15,139,283,0.283,1.7329999999999999,21-05-2020,15:6:42
5b7de8361e7bc100011dc574,56,female,1,1,49,Ambigous_left,no_enforcement2,0,0,-,right,11,14,1000,1.45,left,left,1,2,1,0.058,6,15,139,283,0.283,1.7329999999999999,21-05-2020,15:6:42
5b7de8361e7bc100011dc574,56,female,1,1,50,Ambigous_right,no_enforcement2,0,0,-,right,14,11,1000,1.45,right,left,1,2,0,0.073,6,15,139,283,0.283,1.7329999999999999,21-05-2020,15:6:42
5b7de8361e7bc100011dc574,56,female,1,1,51,Ambigous_right,no_enforcement2,0,0,-,right,14,11,1000,1.45,right,right,2,1,1,0.054,6,15,139,283,0.283,1.7329999999999999,21-05-2020,15:6:42
5b7de8361e7bc100011dc574,56,female,1,1,52,Clear_not_profit_side,no_enforcement2,0,0,-,right,9,16,1000,1.45,left,left,1,2,1,0.06,6,15,139,283,0.283,1.7329999999999999,21-05-2020,15:6:42
5b7de8361e7bc100011dc574,56,female,1,1,53,Clear_not_profit_side,no_enforcement2,0,0,-,right,9,16,1000,1.45,left,left,1,2,1,0.055,6,15,139,283,0.283,1.7329999999999999,21-05-2020,15:6:42
5b7de8361e7bc100011dc574,56,female,1,1,54,Ambigous_left,no_enforcement2,0,0,-,right,11,14,1000,1.45,left,left,1,2,1,0.06,6,15,139,283,0.283,1.7329999999999999,21-05-2020,15:6:42
5b7de8361e7bc100011dc574,56,female,1,1,55,Clear_not_profit_side,no_enforcement2,0,0,-,right,9,16,1000,1.45,left,left,1,2,1,0.043,6,15,139,283,0.283,1.7329999999999999,21-05-2020,15:6:42
5b7de8361e7bc100011dc574,56,female,1,1,56,Ambigous_left,no_enforcement2,0,0,-,right,11,14,1000,1.45,left,left,1,2,1,0.058,6,15,139,283,0.283,1.7329999999999999,21-05-2020,15:6:42
5b7de8361e7bc100011dc574,56,female,1,1,57,Clear_not_profit_side,no_enforcement2,0,0,-,right,9,16,1000,1.45,left,left,1,2,1,0.063,6,15,139,283,0.283,1.7329999999999999,21-05-2020,15:6:42
5b7de8361e7bc100011dc574,56,female,1,1,58,Clear_profit_side,no_enforcement2,0,0,-,right,16,9,1000,1.45,right,right,2,1,1,0.057,6,15,139,283,0.283,1.7329999999999999,21-05-2020,15:6:42
5b7de8361e7bc100011dc574,56,female,1,1,59,Ambigous_right,no_enforcement2,0,0,-,right,14,11,1000,1.45,right,right,2,1,1,0.06,6,15,139,283,0.283,1.7329999999999999,21-05-2020,15:6:42
5b7de8361e7bc100011dc574,56,female,1,1,60,Clear_profit_side,no_enforcement2,0,0,-,right,16,9,1000,1.45,right,right,2,1,1,0.041,6,15,139,283,0.283,1.7329999999999999,21-05-2020,15:6:42
5b7de8361e7bc100011dc574,56,female,1,1,61,Ambigous_left,no_enforcement2,0,0,-,right,11,14,1000,1.45,left,left,1,2,1,0.067,6,15,139,283,0.283,1.7329999999999999,21-05-2020,15:6:42
5b7de8361e7bc100011dc574,56,female,1,1,62,Ambigous_right,no_enforcement2,0,0,-,right,14,11,1000,1.45,right,right,2,1,1,0.065,6,15,139,283,0.283,1.7329999999999999,21-05-2020,15:6:42
5b7de8361e7bc100011dc574,56,female,1,1,63,Ambigous_right,no_enforcement2,0,0,-,right,14,11,1000,1.45,right,right,2,1,1,0.05,6,15,139,283,0.283,1.7329999999999999,21-05-2020,15:6:42
5b7de8361e7bc100011dc574,56,female,1,1,64,Ambigous_right,no_enforcement2,0,0,-,right,14,11,1000,1.45,right,right,2,1,1,0.045,6,15,139,283,0.283,1.7329999999999999,21-05-2020,15:6:42
5b7de8361e7bc100011dc574,56,female,1,1,65,Clear_not_profit_side,no_enforcement2,0,0,-,right,9,16,1000,1.45,left,left,1,2,1,0.059,6,15,139,283,0.283,1.7329999999999999,21-05-2020,15:6:42
5b7de8361e7bc100011dc574,56,female,1,1,66,Clear_not_profit_side,no_enforcement2,0,0,-,right,9,16,1000,1.45,left,left,1,2,1,0.061,6,15,139,283,0.283,1.7329999999999999,21-05-2020,15:6:42
5b7de8361e7bc100011dc574,56,female,1,1,67,Ambigous_right,no_enforcement2,0,0,-,right,14,11,1000,1.45,right,right,2,1,1,0.052,6,15,139,283,0.283,1.7329999999999999,21-05-2020,15:6:42
5b7de8361e7bc100011dc574,56,female,1,1,68,Ambigous_right,no_enforcement2,0,0,-,right,14,11,1000,1.45,right,right,2,1,1,0.048,6,15,139,283,0.283,1.7329999999999999,21-05-2020,15:6:42
5b7de8361e7bc100011dc574,56,female,1,1,69,Clear_not_profit_side,no_enforcement2,0,0,-,right,9,16,1000,1.45,left,left,1,2,1,0.059,6,15,139,283,0.283,1.7329999999999999,21-05-2020,15:6:42
5b7de8361e7bc100011dc574,56,female,1,1,70,Clear_not_profit_side,no_enforcement2,0,0,-,right,9,16,1000,1.45,left,left,1,2,1,0.059,6,15,139,283,0.283,1.7329999999999999,21-05-2020,15:6:42
5b7de8361e7bc100011dc574,56,female,1,1,71,Clear_not_profit_side,no_enforcement2,0,0,-,right,9,16,1000,1.45,left,left,1,2,1,0.053,6,15,139,283,0.283,1.7329999999999999,21-05-2020,15:6:42
5b7de8361e7bc100011dc574,56,female,1,1,72,Clear_not_profit_side,no_enforcement2,0,0,-,right,9,16,1000,1.45,left,left,1,2,1,0.045,6,15,139,283,0.283,1.7329999999999999,21-05-2020,15:6:42
5b7de8361e7bc100011dc574,56,female,1,1,73,Clear_not_profit_side,no_enforcement2,0,0,-,right,9,16,1000,1.45,left,left,1,2,1,0.056,6,15,139,283,0.283,1.7329999999999999,21-05-2020,15:6:42
5b7de8361e7bc100011dc574,56,female,1,1,74,Ambigous_left,no_enforcement2,0,0,-,right,11,14,1000,1.45,left,right,2,1,0,0.064,6,15,139,283,0.283,1.7329999999999999,21-05-2020,15:6:42
5b7de8361e7bc100011dc574,56,female,1,1,75,Clear_profit_side,no_enforcement2,0,0,-,right,16,9,1000,1.45,right,right,2,1,1,0.04,6,15,139,283,0.283,1.7329999999999999,21-05-2020,15:6:42
5b7de8361e7bc100011dc574,56,female,1,1,76,Clear_not_profit_side,no_enforcement2,0,0,-,right,9,16,1000,1.45,left,left,1,2,1,0.063,6,15,139,283,0.283,1.7329999999999999,21-05-2020,15:6:42
5b7de8361e7bc100011dc574,56,female,1,1,77,Ambigous_left,no_enforcement2,0,0,-,right,11,14,1000,1.45,left,left,1,2,1,0.055,6,15,139,283,0.283,1.7329999999999999,21-05-2020,15:6:42
5b7de8361e7bc100011dc574,56,female,1,1,78,Clear_not_profit_side,no_enforcement2,0,0,-,right,9,16,1000,1.45,left,left,1,2,1,0.052,6,15,139,283,0.283,1.7329999999999999,21-05-2020,15:6:42
5b7de8361e7bc100011dc574,56,female,1,1,79,Ambigous_right,no_enforcement2,0,0,-,right,14,11,1000,1.45,right,right,2,1,1,0.074,6,15,139,283,0.283,1.7329999999999999,21-05-2020,15:6:42
5b7de8361e7bc100011dc574,56,female,1,1,80,Clear_profit_side,no_enforcement2,0,0,-,right,16,9,1000,1.45,right,right,2,1,1,0.037,6,15,139,283,0.283,1.7329999999999999,21-05-2020,15:6:42
5b7de8361e7bc100011dc574,56,female,1,1,81,Ambigous_right,no_enforcement2,0,0,-,right,14,11,1000,1.45,right,left,1,2,0,0.077,6,15,139,283,0.283,1.7329999999999999,21-05-2020,15:6:42
5b7de8361e7bc100011dc574,56,female,1,1,82,Ambigous_right,no_enforcement2,0,0,-,right,14,11,1000,1.45,right,right,2,1,1,0.056,6,15,139,283,0.283,1.7329999999999999,21-05-2020,15:6:42
5b7de8361e7bc100011dc574,56,female,1,1,83,Clear_not_profit_side,no_enforcement2,0,0,-,right,9,16,1000,1.45,left,left,1,2,1,0.053,6,15,139,283,0.283,1.7329999999999999,21-05-2020,15:6:42
5b7de8361e7bc100011dc574,56,female,1,1,84,Clear_profit_side,no_enforcement2,0,0,-,right,16,9,1000,1.45,right,right,2,1,1,0.049,6,15,139,283,0.283,1.7329999999999999,21-05-2020,15:6:42
5b7de8361e7bc100011dc574,56,female,1,1,85,Clear_not_profit_side,no_enforcement2,0,0,-,right,9,16,1000,1.45,left,left,1,2,1,0.056,6,15,139,283,0.283,1.7329999999999999,21-05-2020,15:6:42
5b7de8361e7bc100011dc574,56,female,1,1,86,Ambigous_left,no_enforcement2,0,0,-,right,11,14,1000,1.45,left,left,1,2,1,0.052,6,15,139,283,0.283,1.7329999999999999,21-05-2020,15:6:42
5b7de8361e7bc100011dc574,56,female,1,1,87,Ambigous_left,no_enforcement2,0,0,-,right,11,14,1000,1.45,left,left,1,2,1,0.041,6,15,139,283,0.283,1.7329999999999999,21-05-2020,15:6:42
5b7de8361e7bc100011dc574,56,female,1,1,88,Ambigous_left,no_enforcement2,0,0,-,right,11,14,1000,1.45,left,left,1,2,1,0.048,6,15,139,283,0.283,1.7329999999999999,21-05-2020,15:6:42
5b7de8361e7bc100011dc574,56,female,1,1,89,Clear_profit_side,no_enforcement2,0,0,-,right,16,9,1000,1.45,right,right,2,1,1,0.044,6,15,139,283,0.283,1.7329999999999999,21-05-2020,15:6:42
5b7de8361e7bc100011dc574,56,female,1,1,90,Ambigous_left,no_enforcement2,0,0,-,right,11,14,1000,1.45,left,right,2,1,0,0.027,6,15,139,283,0.283,1.7329999999999999,21-05-2020,15:6:42
5b7de8361e7bc100011dc574,56,female,1,1,91,Clear_profit_side,no_enforcement2,0,0,-,right,16,9,1000,1.45,right,right,2,1,1,0.058,6,15,139,283,0.283,1.7329999999999999,21-05-2020,15:6:42
5b7de8361e7bc100011dc574,56,female,1,1,92,Clear_not_profit_side,no_enforcement2,0,0,-,right,9,16,1000,1.45,left,left,1,2,1,0.053,6,15,139,283,0.283,1.7329999999999999,21-05-2020,15:6:42
5b7de8361e7bc100011dc574,56,female,1,1,93,Ambigous_left,no_enforcement2,0,0,-,right,11,14,1000,1.45,left,left,1,2,1,0.064,6,15,139,283,0.283,1.7329999999999999,21-05-2020,15:6:42
5b7de8361e7bc100011dc574,56,female,1,1,94,Ambigous_left,no_enforcement2,0,0,-,right,11,14,1000,1.45,left,left,1,2,1,0.068,6,15,139,283,0.283,1.7329999999999999,21-05-2020,15:6:42
5b7de8361e7bc100011dc574,56,female,1,1,95,Ambigous_left,no_enforcement2,0,0,-,right,11,14,1000,1.45,left,left,1,2,1,0.056,6,15,139,283,0.283,1.7329999999999999,21-05-2020,15:6:42
5b7de8361e7bc100011dc574,56,female,1,1,96,Clear_not_profit_side,no_enforcement2,0,0,-,right,9,16,1000,1.45,left,left,1,2,1,0.055,6,15,139,283,0.283,1.7329999999999999,21-05-2020,15:6:42
5b7de8361e7bc100011dc574,56,female,1,1,97,Clear_not_profit_side,no_enforcement2,0,0,-,right,9,16,1000,1.45,left,left,1,2,1,0.046,6,15,139,283,0.283,1.7329999999999999,21-05-2020,15:6:42
5b7de8361e7bc100011dc574,56,female,1,1,98,Clear_not_profit_side,no_enforcement2,0,0,-,right,9,16,1000,1.45,left,left,1,2,1,0.044,6,15,139,283,0.283,1.7329999999999999,21-05-2020,15:6:42
5b7de8361e7bc100011dc574,56,female,1,1,99,Ambigous_right,no_enforcement2,0,0,-,right,14,11,1000,1.45,right,right,2,1,1,0.058,6,15,139,283,0.283,1.7329999999999999,21-05-2020,15:6:42
5b7de8361e7bc100011dc574,56,female,1,1,100,Clear_not_profit_side,no_enforcement2,0,0,-,right,9,16,1000,1.45,left,left,1,2,1,0.054,6,15,139,283,0.283,1.7329999999999999,21-05-2020,15:6:42
5b7de8361e7bc100011dc574,56,female,1,2,1,Ambigous_left,no_enforcement2,0,0,-,right,11,14,1000,1.45,left,left,1,2,1,0.06,9,15,144,283,0.283,1.7329999999999999,21-05-2020,15:6:42
5b7de8361e7bc100011dc574,56,female,1,2,2,Clear_not_profit_side,no_enforcement2,0,0,-,right,9,16,1000,1.45,left,left,1,2,1,0.077,9,15,144,283,0.283,1.7329999999999999,21-05-2020,15:6:42
5b7de8361e7bc100011dc574,56,female,1,2,3,Ambigous_right,no_enforcement2,0,0,-,right,14,11,1000,1.45,right,right,2,1,1,0.05,9,15,144,283,0.283,1.7329999999999999,21-05-2020,15:6:42
5b7de8361e7bc100011dc574,56,female,1,2,4,Clear_profit_side,no_enforcement2,0,0,-,right,16,9,1000,1.45,right,right,2,1,1,0.043,9,15,144,283,0.283,1.7329999999999999,21-05-2020,15:6:42
5b7de8361e7bc100011dc574,56,female,1,2,5,Clear_not_profit_side,no_enforcement2,0,0,-,right,9,16,1000,1.45,left,left,1,2,1,0.053,9,15,144,283,0.283,1.7329999999999999,21-05-2020,15:6:42
5b7de8361e7bc100011dc574,56,female,1,2,6,Ambigous_left,no_enforcement2,0,0,-,right,11,14,1000,1.45,left,left,1,2,1,0.143,9,15,144,283,0.283,1.7329999999999999,21-05-2020,15:6:42
5b7de8361e7bc100011dc574,56,female,1,2,7,Ambigous_right,no_enforcement2,0,0,-,right,14,11,1000,1.45,right,right,2,1,1,0.035,9,15,144,283,0.283,1.7329999999999999,21-05-2020,15:6:42
5b7de8361e7bc100011dc574,56,female,1,2,8,Ambigous_left,no_enforcement2,0,0,-,right,11,14,1000,1.45,left,left,1,2,1,0.06,9,15,144,283,0.283,1.7329999999999999,21-05-2020,15:6:42
5b7de8361e7bc100011dc574,56,female,1,2,9,Ambigous_right,no_enforcement2,0,0,-,right,14,11,1000,1.45,right,right,2,1,1,0.048,9,15,144,283,0.283,1.7329999999999999,21-05-2020,15:6:42
5b7de8361e7bc100011dc574,56,female,1,2,10,Ambigous_right,no_enforcement2,0,0,-,right,14,11,1000,1.45,right,left,1,2,0,0.073,9,15,144,283,0.283,1.7329999999999999,21-05-2020,15:6:42
5b7de8361e7bc100011dc574,56,female,1,2,11,Clear_not_profit_side,no_enforcement2,0,0,-,right,9,16,1000,1.45,left,left,1,2,1,0.046,9,15,144,283,0.283,1.7329999999999999,21-05-2020,15:6:42
5b7de8361e7bc100011dc574,56,female,1,2,12,Ambigous_right,no_enforcement2,0,0,-,right,14,11,1000,1.45,right,right,2,1,1,0.046,9,15,144,283,0.283,1.7329999999999999,21-05-2020,15:6:42
5b7de8361e7bc100011dc574,56,female,1,2,13,Clear_profit_side,no_enforcement2,0,0,-,right,16,9,1000,1.45,right,right,2,1,1,0.041,9,15,144,283,0.283,1.7329999999999999,21-05-2020,15:6:42
5b7de8361e7bc100011dc574,56,female,1,2,14,Ambigous_right,no_enforcement2,0,0,-,right,14,11,1000,1.45,right,right,2,1,1,0.02,9,15,144,283,0.283,1.7329999999999999,21-05-2020,15:6:42
5b7de8361e7bc100011dc574,56,female,1,2,15,Clear_not_profit_side,no_enforcement2,0,0,-,right,9,16,1000,1.45,left,left,1,2,1,0.049,9,15,144,283,0.283,1.7329999999999999,21-05-2020,15:6:42
5b7de8361e7bc100011dc574,56,female,1,2,16,Ambigous_right,no_enforcement2,0,0,-,right,14,11,1000,1.45,right,right,2,1,1,0.058,9,15,144,283,0.283,1.7329999999999999,21-05-2020,15:6:42
5b7de8361e7bc100011dc574,56,female,1,2,17,Ambigous_left,no_enforcement2,0,0,-,right,11,14,1000,1.45,left,left,1,2,1,0.049,9,15,144,283,0.283,1.7329999999999999,21-05-2020,15:6:42
5b7de8361e7bc100011dc574,56,female,1,2,18,Clear_not_profit_side,no_enforcement2,0,0,-,right,9,16,1000,1.45,left,left,1,2,1,0.041,9,15,144,283,0.283,1.7329999999999999,21-05-2020,15:6:42
5b7de8361e7bc100011dc574,56,female,1,2,19,Ambigous_right,no_enforcement2,0,0,-,right,14,11,1000,1.45,right,right,2,1,1,0.048,9,15,144,283,0.283,1.7329999999999999,21-05-2020,15:6:42
5b7de8361e7bc100011dc574,56,female,1,2,20,Clear_not_profit_side,no_enforcement2,0,0,-,right,9,16,1000,1.45,left,left,1,2,1,0.059,9,15,144,283,0.283,1.7329999999999999,21-05-2020,15:6:42
5b7de8361e7bc100011dc574,56,female,1,2,21,Clear_profit_side,no_enforcement2,0,0,-,right,16,9,1000,1.45,right,right,2,1,1,0.038,9,15,144,283,0.283,1.7329999999999999,21-05-2020,15:6:42
5b7de8361e7bc100011dc574,56,female,1,2,22,Ambigous_left,no_enforcement2,0,0,-,right,11,14,1000,1.45,left,left,1,2,1,0.05,9,15,144,283,0.283,1.7329999999999999,21-05-2020,15:6:42
5b7de8361e7bc100011dc574,56,female,1,2,23,Ambigous_left,no_enforcement2,0,0,-,right,11,14,1000,1.45,left,left,1,2,1,0.05,9,15,144,283,0.283,1.7329999999999999,21-05-2020,15:6:42
5b7de8361e7bc100011dc574,56,female,1,2,24,Ambigous_right,no_enforcement2,0,0,-,right,14,11,1000,1.45,right,right,2,1,1,0.051,9,15,144,283,0.283,1.7329999999999999,21-05-2020,15:6:42
5b7de8361e7bc100011dc574,56,female,1,2,25,Clear_not_profit_side,no_enforcement2,0,0,-,right,9,16,1000,1.45,left,left,1,2,1,0.049,9,15,144,283,0.283,1.7329999999999999,21-05-2020,15:6:42
5b7de8361e7bc100011dc574,56,female,1,2,26,Clear_not_profit_side,no_enforcement2,0,0,-,right,9,16,1000,1.45,left,left,1,2,1,0.057,9,15,144,283,0.283,1.7329999999999999,21-05-2020,15:6:42
5b7de8361e7bc100011dc574,56,female,1,2,27,Ambigous_right,no_enforcement2,0,0,-,right,14,11,1000,1.45,right,right,2,1,1,0.057,9,15,144,283,0.283,1.7329999999999999,21-05-2020,15:6:42
5b7de8361e7bc100011dc574,56,female,1,2,28,Ambigous_right,no_enforcement2,0,0,-,right,14,11,1000,1.45,right,right,2,1,1,0.049,9,15,144,283,0.283,1.7329999999999999,21-05-2020,15:6:42
5b7de8361e7bc100011dc574,56,female,1,2,29,Ambigous_right,no_enforcement2,0,0,-,right,14,11,1000,1.45,right,right,2,1,1,0.031,9,15,144,283,0.283,1.7329999999999999,21-05-2020,15:6:42
5b7de8361e7bc100011dc574,56,female,1,2,30,Clear_profit_side,no_enforcement2,0,0,-,right,16,9,1000,1.45,right,right,2,1,1,0.048,9,15,144,283,0.283,1.7329999999999999,21-05-2020,15:6:42
5b7de8361e7bc100011dc574,56,female,1,2,31,Ambigous_left,no_enforcement2,0,0,-,right,11,14,1000,1.45,left,right,2,1,0,0.074,9,15,144,283,0.283,1.7329999999999999,21-05-2020,15:6:42
5b7de8361e7bc100011dc574,56,female,1,2,32,Clear_profit_side,no_enforcement2,0,0,-,right,16,9,1000,1.45,right,right,2,1,1,0.04,9,15,144,283,0.283,1.7329999999999999,21-05-2020,15:6:42
5b7de8361e7bc100011dc574,56,female,1,2,33,Clear_profit_side,no_enforcement2,0,0,-,right,16,9,1000,1.45,right,right,2,1,1,0.052,9,15,144,283,0.283,1.7329999999999999,21-05-2020,15:6:42
5b7de8361e7bc100011dc574,56,female,1,2,34,Clear_not_profit_side,no_enforcement2,0,0,-,right,9,16,1000,1.45,left,left,1,2,1,0.06,9,15,144,283,0.283,1.7329999999999999,21-05-2020,15:6:42
5b7de8361e7bc100011dc574,56,female,1,2,35,Clear_not_profit_side,no_enforcement2,0,0,-,right,9,16,1000,1.45,left,left,1,2,1,0.055,9,15,144,283,0.283,1.7329999999999999,21-05-2020,15:6:42
5b7de8361e7bc100011dc574,56,female,1,2,36,Ambigous_left,no_enforcement2,0,0,-,right,11,14,1000,1.45,left,left,1,2,1,0.051,9,15,144,283,0.283,1.7329999999999999,21-05-2020,15:6:42
5b7de8361e7bc100011dc574,56,female,1,2,37,Ambigous_left,no_enforcement2,0,0,-,right,11,14,1000,1.45,left,right,2,1,0,0.074,9,15,144,283,0.283,1.7329999999999999,21-05-2020,15:6:42
5b7de8361e7bc100011dc574,56,female,1,2,38,Clear_profit_side,no_enforcement2,0,0,-,right,16,9,1000,1.45,right,right,2,1,1,0.029,9,15,144,283,0.283,1.7329999999999999,21-05-2020,15:6:42
5b7de8361e7bc100011dc574,56,female,1,2,39,Clear_not_profit_side,no_enforcement2,0,0,-,right,9,16,1000,1.45,left,left,1,2,1,0.05,9,15,144,283,0.283,1.7329999999999999,21-05-2020,15:6:42
5b7de8361e7bc100011dc574,56,female,1,2,40,Clear_not_profit_side,no_enforcement2,0,0,-,right,9,16,1000,1.45,left,left,1,2,1,0.05,9,15,144,283,0.283,1.7329999999999999,21-05-2020,15:6:42
5b7de8361e7bc100011dc574,56,female,1,2,41,Ambigous_right,no_enforcement2,0,0,-,right,14,11,1000,1.45,right,right,2,1,1,0.055,9,15,144,283,0.283,1.7329999999999999,21-05-2020,15:6:42
5b7de8361e7bc100011dc574,56,female,1,2,42,Ambigous_right,no_enforcement2,0,0,-,right,14,11,1000,1.45,right,left,1,2,0,0.066,9,15,144,283,0.283,1.7329999999999999,21-05-2020,15:6:42
5b7de8361e7bc100011dc574,56,female,1,2,43,Clear_profit_side,no_enforcement2,0,0,-,right,16,9,1000,1.45,right,right,2,1,1,0.055,9,15,144,283,0.283,1.7329999999999999,21-05-2020,15:6:42
5b7de8361e7bc100011dc574,56,female,1,2,44,Clear_profit_side,no_enforcement2,0,0,-,right,16,9,1000,1.45,right,right,2,1,1,0.048,9,15,144,283,0.283,1.7329999999999999,21-05-2020,15:6:42
5b7de8361e7bc100011dc574,56,female,1,2,45,Clear_not_profit_side,no_enforcement2,0,0,-,right,9,16,1000,1.45,left,left,1,2,1,0.055,9,15,144,283,0.283,1.7329999999999999,21-05-2020,15:6:42
5b7de8361e7bc100011dc574,56,female,1,2,46,Clear_profit_side,no_enforcement2,0,0,-,right,16,9,1000,1.45,right,right,2,1,1,0.053,9,15,144,283,0.283,1.7329999999999999,21-05-2020,15:6:42
5b7de8361e7bc100011dc574,56,female,1,2,47,Clear_not_profit_side,no_enforcement2,0,0,-,right,9,16,1000,1.45,left,left,1,2,1,0.045,9,15,144,283,0.283,1.7329999999999999,21-05-2020,15:6:42
5b7de8361e7bc100011dc574,56,female,1,2,48,Clear_profit_side,no_enforcement2,0,0,-,right,16,9,1000,1.45,right,right,2,1,1,0.062,9,15,144,283,0.283,1.7329999999999999,21-05-2020,15:6:42
5b7de8361e7bc100011dc574,56,female,1,2,49,Ambigous_left,no_enforcement2,0,0,-,right,11,14,1000,1.45,left,left,1,2,1,0.048,9,15,144,283,0.283,1.7329999999999999,21-05-2020,15:6:42
5b7de8361e7bc100011dc574,56,female,1,2,50,Ambigous_left,no_enforcement2,0,0,-,right,11,14,1000,1.45,left,left,1,2,1,0.056,9,15,144,283,0.283,1.7329999999999999,21-05-2020,15:6:42
5b7de8361e7bc100011dc574,56,female,1,2,51,Ambigous_left,no_enforcement2,0,0,-,right,11,14,1000,1.45,left,left,1,2,1,0.072,9,15,144,283,0.283,1.7329999999999999,21-05-2020,15:6:42
5b7de8361e7bc100011dc574,56,female,1,2,52,Ambigous_right,no_enforcement2,0,0,-,right,14,11,1000,1.45,right,right,2,1,1,0.053,9,15,144,283,0.283,1.7329999999999999,21-05-2020,15:6:42
5b7de8361e7bc100011dc574,56,female,1,2,53,Ambigous_left,no_enforcement2,0,0,-,right,11,14,1000,1.45,left,right,2,1,0,0.145,9,15,144,283,0.283,1.7329999999999999,21-05-2020,15:6:42
5b7de8361e7bc100011dc574,56,female,1,2,54,Clear_not_profit_side,no_enforcement2,0,0,-,right,9,16,1000,1.45,left,left,1,2,1,0.07,9,15,144,283,0.283,1.7329999999999999,21-05-2020,15:6:42
5b7de8361e7bc100011dc574,56,female,1,2,55,Ambigous_left,no_enforcement2,0,0,-,right,11,14,1000,1.45,left,left,1,2,1,0.056,9,15,144,283,0.283,1.7329999999999999,21-05-2020,15:6:42
5b7de8361e7bc100011dc574,56,female,1,2,56,Ambigous_left,no_enforcement2,0,0,-,right,11,14,1000,1.45,left,left,1,2,1,0.052,9,15,144,283,0.283,1.7329999999999999,21-05-2020,15:6:42
5b7de8361e7bc100011dc574,56,female,1,2,57,Ambigous_left,no_enforcement2,0,0,-,right,11,14,1000,1.45,left,right,2,1,0,0.073,9,15,144,283,0.283,1.7329999999999999,21-05-2020,15:6:42
5b7de8361e7bc100011dc574,56,female,1,2,58,Clear_profit_side,no_enforcement2,0,0,-,right,16,9,1000,1.45,right,right,2,1,1,0.028,9,15,144,283,0.283,1.7329999999999999,21-05-2020,15:6:42
5b7de8361e7bc100011dc574,56,female,1,2,59,Ambigous_right,no_enforcement2,0,0,-,right,14,11,1000,1.45,right,right,2,1,1,0.057,9,15,144,283,0.283,1.7329999999999999,21-05-2020,15:6:42
5b7de8361e7bc100011dc574,56,female,1,2,60,Ambigous_right,no_enforcement2,0,0,-,right,14,11,1000,1.45,right,right,2,1,1,0.042,9,15,144,283,0.283,1.7329999999999999,21-05-2020,15:6:42
5b7de8361e7bc100011dc574,56,female,1,2,61,Ambigous_right,no_enforcement2,0,0,-,right,14,11,1000,1.45,right,right,2,1,1,0.045,9,15,144,283,0.283,1.7329999999999999,21-05-2020,15:6:42
5b7de8361e7bc100011dc574,56,female,1,2,62,Ambigous_left,no_enforcement2,0,0,-,right,11,14,1000,1.45,left,left,1,2,1,0.058,9,15,144,283,0.283,1.7329999999999999,21-05-2020,15:6:42
5b7de8361e7bc100011dc574,56,female,1,2,63,Clear_not_profit_side,no_enforcement2,0,0,-,right,9,16,1000,1.45,left,left,1,2,1,0.033,9,15,144,283,0.283,1.7329999999999999,21-05-2020,15:6:42
5b7de8361e7bc100011dc574,56,female,1,2,64,Clear_not_profit_side,no_enforcement2,0,0,-,right,9,16,1000,1.45,left,left,1,2,1,0.05,9,15,144,283,0.283,1.7329999999999999,21-05-2020,15:6:42
5b7de8361e7bc100011dc574,56,female,1,2,65,Clear_not_profit_side,no_enforcement2,0,0,-,right,9,16,1000,1.45,left,left,1,2,1,0.06,9,15,144,283,0.283,1.7329999999999999,21-05-2020,15:6:42
5b7de8361e7bc100011dc574,56,female,1,2,66,Ambigous_left,no_enforcement2,0,0,-,right,11,14,1000,1.45,left,right,2,1,0,0.063,9,15,144,283,0.283,1.7329999999999999,21-05-2020,15:6:42
5b7de8361e7bc100011dc574,56,female,1,2,67,Clear_not_profit_side,no_enforcement2,0,0,-,right,9,16,1000,1.45,left,left,1,2,1,0.052,9,15,144,283,0.283,1.7329999999999999,21-05-2020,15:6:42
5b7de8361e7bc100011dc574,56,female,1,2,68,Ambigous_right,no_enforcement2,0,0,-,right,14,11,1000,1.45,right,right,2,1,1,0.05,9,15,144,283,0.283,1.7329999999999999,21-05-2020,15:6:42
5b7de8361e7bc100011dc574,56,female,1,2,69,Ambigous_right,no_enforcement2,0,0,-,right,14,11,1000,1.45,right,right,2,1,1,0.056,9,15,144,283,0.283,1.7329999999999999,21-05-2020,15:6:42
5b7de8361e7bc100011dc574,56,female,1,2,70,Ambigous_left,no_enforcement2,0,0,-,right,11,14,1000,1.45,left,right,2,1,0,0.057,9,15,144,283,0.283,1.7329999999999999,21-05-2020,15:6:42
5b7de8361e7bc100011dc574,56,female,1,2,71,Ambigous_right,no_enforcement2,0,0,-,right,14,11,1000,1.45,right,right,2,1,1,0.046,9,15,144,283,0.283,1.7329999999999999,21-05-2020,15:6:42
5b7de8361e7bc100011dc574,56,female,1,2,72,Clear_not_profit_side,no_enforcement2,0,0,-,right,9,16,1000,1.45,left,left,1,2,1,0.056,9,15,144,283,0.283,1.7329999999999999,21-05-2020,15:6:42
5b7de8361e7bc100011dc574,56,female,1,2,73,Clear_not_profit_side,no_enforcement2,0,0,-,right,9,16,1000,1.45,left,left,1,2,1,0.061,9,15,144,283,0.283,1.7329999999999999,21-05-2020,15:6:42
5b7de8361e7bc100011dc574,56,female,1,2,74,Ambigous_right,no_enforcement2,0,0,-,right,14,11,1000,1.45,right,left,1,2,0,0.073,9,15,144,283,0.283,1.7329999999999999,21-05-2020,15:6:42
5b7de8361e7bc100011dc574,56,female,1,2,75,Ambigous_left,no_enforcement2,0,0,-,right,11,14,1000,1.45,left,left,1,2,1,0.049,9,15,144,283,0.283,1.7329999999999999,21-05-2020,15:6:42
5b7de8361e7bc100011dc574,56,female,1,2,76,Clear_not_profit_side,no_enforcement2,0,0,-,right,9,16,1000,1.45,left,left,1,2,1,0.04,9,15,144,283,0.283,1.7329999999999999,21-05-2020,15:6:42
5b7de8361e7bc100011dc574,56,female,1,2,77,Clear_not_profit_side,no_enforcement2,0,0,-,right,9,16,1000,1.45,left,left,1,2,1,0.043,9,15,144,283,0.283,1.7329999999999999,21-05-2020,15:6:42
5b7de8361e7bc100011dc574,56,female,1,2,78,Clear_profit_side,no_enforcement2,0,0,-,right,16,9,1000,1.45,right,right,2,1,1,0.057,9,15,144,283,0.283,1.7329999999999999,21-05-2020,15:6:42
5b7de8361e7bc100011dc574,56,female,1,2,79,Clear_not_profit_side,no_enforcement2,0,0,-,right,9,16,1000,1.45,left,left,1,2,1,0.049,9,15,144,283,0.283,1.7329999999999999,21-05-2020,15:6:42
5b7de8361e7bc100011dc574,56,female,1,2,80,Clear_profit_side,no_enforcement2,0,0,-,right,16,9,1000,1.45,right,right,2,1,1,0.04,9,15,144,283,0.283,1.7329999999999999,21-05-2020,15:6:42
5b7de8361e7bc100011dc574,56,female,1,2,81,Ambigous_left,no_enforcement2,0,0,-,right,11,14,1000,1.45,left,left,1,2,1,0.058,9,15,144,283,0.283,1.7329999999999999,21-05-2020,15:6:42
5b7de8361e7bc100011dc574,56,female,1,2,82,Ambigous_left,no_enforcement2,0,0,-,right,11,14,1000,1.45,left,left,1,2,1,0.052,9,15,144,283,0.283,1.7329999999999999,21-05-2020,15:6:42
5b7de8361e7bc100011dc574,56,female,1,2,83,Ambigous_left,no_enforcement2,0,0,-,right,11,14,1000,1.45,left,left,1,2,1,0.049,9,15,144,283,0.283,1.7329999999999999,21-05-2020,15:6:42
5b7de8361e7bc100011dc574,56,female,1,2,84,Clear_not_profit_side,no_enforcement2,0,0,-,right,9,16,1000,1.45,left,left,1,2,1,0.045,9,15,144,283,0.283,1.7329999999999999,21-05-2020,15:6:42
5b7de8361e7bc100011dc574,56,female,1,2,85,Clear_profit_side,no_enforcement2,0,0,-,right,16,9,1000,1.45,right,right,2,1,1,0.041,9,15,144,283,0.283,1.7329999999999999,21-05-2020,15:6:42
5b7de8361e7bc100011dc574,56,female,1,2,86,Clear_not_profit_side,no_enforcement2,0,0,-,right,9,16,1000,1.45,left,left,1,2,1,0.052,9,15,144,283,0.283,1.7329999999999999,21-05-2020,15:6:42
5b7de8361e7bc100011dc574,56,female,1,2,87,Clear_not_profit_side,no_enforcement2,0,0,-,right,9,16,1000,1.45,left,left,1,2,1,0.053,9,15,144,283,0.283,1.7329999999999999,21-05-2020,15:6:42
5b7de8361e7bc100011dc574,56,female,1,2,88,Clear_not_profit_side,no_enforcement2,0,0,-,right,9,16,1000,1.45,left,left,1,2,1,0.121,9,15,144,283,0.283,1.7329999999999999,21-05-2020,15:6:42
5b7de8361e7bc100011dc574,56,female,1,2,89,Clear_not_profit_side,no_enforcement2,0,0,-,right,9,16,1000,1.45,left,left,1,2,1,0.051,9,15,144,283,0.283,1.7329999999999999,21-05-2020,15:6:42
5b7de8361e7bc100011dc574,56,female,1,2,90,Clear_not_profit_side,no_enforcement2,0,0,-,right,9,16,1000,1.45,left,left,1,2,1,0.063,9,15,144,283,0.283,1.7329999999999999,21-05-2020,15:6:42
5b7de8361e7bc100011dc574,56,female,1,2,91,Clear_not_profit_side,no_enforcement2,0,0,-,right,9,16,1000,1.45,left,left,1,2,1,0.051,9,15,144,283,0.283,1.7329999999999999,21-05-2020,15:6:42
5b7de8361e7bc100011dc574,56,female,1,2,92,Ambigous_right,no_enforcement2,0,0,-,right,14,11,1000,1.45,right,right,2,1,1,0.063,9,15,144,283,0.283,1.7329999999999999,21-05-2020,15:6:42
5b7de8361e7bc100011dc574,56,female,1,2,93,Ambigous_right,no_enforcement2,0,0,-,right,14,11,1000,1.45,right,right,2,1,1,0.051,9,15,144,283,0.283,1.7329999999999999,21-05-2020,15:6:42
5b7de8361e7bc100011dc574,56,female,1,2,94,Clear_not_profit_side,no_enforcement2,0,0,-,right,9,16,1000,1.45,left,left,1,2,1,0.049,9,15,144,283,0.283,1.7329999999999999,21-05-2020,15:6:42
5b7de8361e7bc100011dc574,56,female,1,2,95,Clear_not_profit_side,no_enforcement2,0,0,-,right,9,16,1000,1.45,left,left,1,2,1,0.051,9,15,144,283,0.283,1.7329999999999999,21-05-2020,15:6:42
5b7de8361e7bc100011dc574,56,female,1,2,96,Clear_not_profit_side,no_enforcement2,0,0,-,right,9,16,1000,1.45,left,left,1,2,1,0.044,9,15,144,283,0.283,1.7329999999999999,21-05-2020,15:6:42
5b7de8361e7bc100011dc574,56,female,1,2,97,Ambigous_right,no_enforcement2,0,0,-,right,14,11,1000,1.45,right,right,2,1,1,0.053,9,15,144,283,0.283,1.7329999999999999,21-05-2020,15:6:42
5b7de8361e7bc100011dc574,56,female,1,2,98,Ambigous_left,no_enforcement2,0,0,-,right,11,14,1000,1.45,left,left,1,2,1,0.059,9,15,144,283,0.283,1.7329999999999999,21-05-2020,15:6:42
5b7de8361e7bc100011dc574,56,female,1,2,99,Ambigous_left,no_enforcement2,0,0,-,right,11,14,1000,1.45,left,left,1,2,1,0.044,9,15,144,283,0.283,1.7329999999999999,21-05-2020,15:6:42
5b7de8361e7bc100011dc574,56,female,1,2,100,Clear_profit_side,no_enforcement2,0,0,-,right,16,9,1000,1.45,right,right,2,1,1,0.056,9,15,144,283,0.283,1.7329999999999999,21-05-2020,15:6:42
5d94aee42efd5f0017023e9e,18,female,1,1,1,Clear_profit_side,no_enforcement2,0,0,-,left,9,16,1000,1.45,left,left,2,1,1,0.413,7,12,138,278,0.278,1.728,21-05-2020,14:47:58
5d94aee42efd5f0017023e9e,18,female,1,1,2,Clear_not_profit_side,no_enforcement2,0,0,-,left,16,9,1000,1.45,right,right,1,2,1,0.237,7,12,138,278,0.278,1.728,21-05-2020,14:47:58
5d94aee42efd5f0017023e9e,18,female,1,1,3,Ambigous_left,no_enforcement2,0,0,-,left,11,14,1000,1.45,left,right,1,2,0,0.289,7,12,138,278,0.278,1.728,21-05-2020,14:47:58
5d94aee42efd5f0017023e9e,18,female,1,1,4,Ambigous_right,no_enforcement2,0,0,-,left,14,11,1000,1.45,right,right,1,2,1,0.184,7,12,138,278,0.278,1.728,21-05-2020,14:47:58
5d94aee42efd5f0017023e9e,18,female,1,1,5,Clear_profit_side,no_enforcement2,0,0,-,left,9,16,1000,1.45,left,left,2,1,1,0.341,7,12,138,278,0.278,1.728,21-05-2020,14:47:58
5d94aee42efd5f0017023e9e,18,female,1,1,6,Ambigous_right,no_enforcement2,0,0,-,left,14,11,1000,1.45,right,right,1,2,1,0.258,7,12,138,278,0.278,1.728,21-05-2020,14:47:58
5d94aee42efd5f0017023e9e,18,female,1,1,7,Ambigous_left,no_enforcement2,0,0,-,left,11,14,1000,1.45,left,left,2,1,1,0.27,7,12,138,278,0.278,1.728,21-05-2020,14:47:58
5d94aee42efd5f0017023e9e,18,female,1,1,8,Clear_not_profit_side,no_enforcement2,0,0,-,left,16,9,1000,1.45,right,right,1,2,1,0.274,7,12,138,278,0.278,1.728,21-05-2020,14:47:58
5d94aee42efd5f0017023e9e,18,female,1,1,9,Clear_not_profit_side,no_enforcement2,0,0,-,left,16,9,1000,1.45,right,right,1,2,1,0.169,7,12,138,278,0.278,1.728,21-05-2020,14:47:58
5d94aee42efd5f0017023e9e,18,female,1,1,10,Ambigous_right,no_enforcement2,0,0,-,left,14,11,1000,1.45,right,left,2,1,0,0.284,7,12,138,278,0.278,1.728,21-05-2020,14:47:58
5d94aee42efd5f0017023e9e,18,female,1,1,11,Ambigous_right,no_enforcement2,0,0,-,left,14,11,1000,1.45,right,right,1,2,1,0.248,7,12,138,278,0.278,1.728,21-05-2020,14:47:58
5d94aee42efd5f0017023e9e,18,female,1,1,12,Clear_not_profit_side,no_enforcement2,0,0,-,left,16,9,1000,1.45,right,right,1,2,1,0.168,7,12,138,278,0.278,1.728,21-05-2020,14:47:58
5d94aee42efd5f0017023e9e,18,female,1,1,13,Clear_not_profit_side,no_enforcement2,0,0,-,left,16,9,1000,1.45,right,right,1,2,1,0.169,7,12,138,278,0.278,1.728,21-05-2020,14:47:58
5d94aee42efd5f0017023e9e,18,female,1,1,14,Clear_profit_side,no_enforcement2,0,0,-,left,9,16,1000,1.45,left,left,2,1,1,0.215,7,12,138,278,0.278,1.728,21-05-2020,14:47:58
5d94aee42efd5f0017023e9e,18,female,1,1,15,Ambigous_left,no_enforcement2,0,0,-,left,11,14,1000,1.45,left,left,2,1,1,0.158,7,12,138,278,0.278,1.728,21-05-2020,14:47:58
5d94aee42efd5f0017023e9e,18,female,1,1,16,Ambigous_left,no_enforcement2,0,0,-,left,11,14,1000,1.45,left,left,2,1,1,0.193,7,12,138,278,0.278,1.728,21-05-2020,14:47:58
5d94aee42efd5f0017023e9e,18,female,1,1,17,Ambigous_right,no_enforcement2,0,0,-,left,14,11,1000,1.45,right,right,1,2,1,0.235,7,12,138,278,0.278,1.728,21-05-2020,14:47:58
5d94aee42efd5f0017023e9e,18,female,1,1,18,Clear_not_profit_side,no_enforcement2,0,0,-,left,16,9,1000,1.45,right,right,1,2,1,0.188,7,12,138,278,0.278,1.728,21-05-2020,14:47:58
5d94aee42efd5f0017023e9e,18,female,1,1,19,Clear_not_profit_side,no_enforcement2,0,0,-,left,16,9,1000,1.45,right,right,1,2,1,0.17,7,12,138,278,0.278,1.728,21-05-2020,14:47:58
5d94aee42efd5f0017023e9e,18,female,1,1,20,Ambigous_right,no_enforcement2,0,0,-,left,14,11,1000,1.45,right,right,1,2,1,0.172,7,12,138,278,0.278,1.728,21-05-2020,14:47:58
5d94aee42efd5f0017023e9e,18,female,1,1,21,Ambigous_left,no_enforcement2,0,0,-,left,11,14,1000,1.45,left,left,2,1,1,0.377,7,12,138,278,0.278,1.728,21-05-2020,14:47:58
5d94aee42efd5f0017023e9e,18,female,1,1,22,Clear_not_profit_side,no_enforcement2,0,0,-,left,16,9,1000,1.45,right,right,1,2,1,0.183,7,12,138,278,0.278,1.728,21-05-2020,14:47:58
5d94aee42efd5f0017023e9e,18,female,1,1,23,Ambigous_right,no_enforcement2,0,0,-,left,14,11,1000,1.45,right,right,1,2,1,0.351,7,12,138,278,0.278,1.728,21-05-2020,14:47:58
5d94aee42efd5f0017023e9e,18,female,1,1,24,Ambigous_left,no_enforcement2,0,0,-,left,11,14,1000,1.45,left,left,2,1,1,0.229,7,12,138,278,0.278,1.728,21-05-2020,14:47:58
5d94aee42efd5f0017023e9e,18,female,1,1,25,Ambigous_left,no_enforcement2,0,0,-,left,11,14,1000,1.45,left,left,2,1,1,0.16,7,12,138,278,0.278,1.728,21-05-2020,14:47:58
5d94aee42efd5f0017023e9e,18,female,1,1,26,Clear_not_profit_side,no_enforcement2,0,0,-,left,16,9,1000,1.45,right,right,1,2,1,0.2,7,12,138,278,0.278,1.728,21-05-2020,14:47:58
5d94aee42efd5f0017023e9e,18,female,1,1,27,Clear_not_profit_side,no_enforcement2,0,0,-,left,16,9,1000,1.45,right,right,1,2,1,0.149,7,12,138,278,0.278,1.728,21-05-2020,14:47:58
5d94aee42efd5f0017023e9e,18,female,1,1,28,Ambigous_right,no_enforcement2,0,0,-,left,14,11,1000,1.45,right,right,1,2,1,0.156,7,12,138,278,0.278,1.728,21-05-2020,14:47:58
5d94aee42efd5f0017023e9e,18,female,1,1,29,Ambigous_right,no_enforcement2,0,0,-,left,14,11,1000,1.45,right,right,1,2,1,0.381,7,12,138,278,0.278,1.728,21-05-2020,14:47:58
5d94aee42efd5f0017023e9e,18,female,1,1,30,Ambigous_left,no_enforcement2,0,0,-,left,11,14,1000,1.45,left,left,2,1,1,0.345,7,12,138,278,0.278,1.728,21-05-2020,14:47:58
5d94aee42efd5f0017023e9e,18,female,1,1,31,Ambigous_right,no_enforcement2,0,0,-,left,14,11,1000,1.45,right,right,1,2,1,0.171,7,12,138,278,0.278,1.728,21-05-2020,14:47:58
5d94aee42efd5f0017023e9e,18,female,1,1,32,Clear_not_profit_side,no_enforcement2,0,0,-,left,16,9,1000,1.45,right,right,1,2,1,0.144,7,12,138,278,0.278,1.728,21-05-2020,14:47:58
5d94aee42efd5f0017023e9e,18,female,1,1,33,Ambigous_left,no_enforcement2,0,0,-,left,11,14,1000,1.45,left,right,1,2,0,0.415,7,12,138,278,0.278,1.728,21-05-2020,14:47:58
5d94aee42efd5f0017023e9e,18,female,1,1,34,Clear_profit_side,no_enforcement2,0,0,-,left,9,16,1000,1.45,left,left,2,1,1,0.204,7,12,138,278,0.278,1.728,21-05-2020,14:47:58
5d94aee42efd5f0017023e9e,18,female,1,1,35,Ambigous_left,no_enforcement2,0,0,-,left,11,14,1000,1.45,left,left,2,1,1,0.158,7,12,138,278,0.278,1.728,21-05-2020,14:47:58
5d94aee42efd5f0017023e9e,18,female,1,1,36,Clear_not_profit_side,no_enforcement2,0,0,-,left,16,9,1000,1.45,right,right,1,2,1,0.179,7,12,138,278,0.278,1.728,21-05-2020,14:47:58
5d94aee42efd5f0017023e9e,18,female,1,1,37,Clear_not_profit_side,no_enforcement2,0,0,-,left,16,9,1000,1.45,right,right,1,2,1,0.147,7,12,138,278,0.278,1.728,21-05-2020,14:47:58
5d94aee42efd5f0017023e9e,18,female,1,1,38,Clear_not_profit_side,no_enforcement2,0,0,-,left,16,9,1000,1.45,right,right,1,2,1,0.151,7,12,138,278,0.278,1.728,21-05-2020,14:47:58
5d94aee42efd5f0017023e9e,18,female,1,1,39,Clear_profit_side,no_enforcement2,0,0,-,left,9,16,1000,1.45,left,left,2,1,1,0.19,7,12,138,278,0.278,1.728,21-05-2020,14:47:58
5d94aee42efd5f0017023e9e,18,female,1,1,40,Ambigous_right,no_enforcement2,0,0,-,left,14,11,1000,1.45,right,right,1,2,1,0.179,7,12,138,278,0.278,1.728,21-05-2020,14:47:58
5d94aee42efd5f0017023e9e,18,female,1,1,41,Clear_not_profit_side,no_enforcement2,0,0,-,left,16,9,1000,1.45,right,right,1,2,1,0.159,7,12,138,278,0.278,1.728,21-05-2020,14:47:58
5d94aee42efd5f0017023e9e,18,female,1,1,42,Clear_not_profit_side,no_enforcement2,0,0,-,left,16,9,1000,1.45,right,right,1,2,1,0.161,7,12,138,278,0.278,1.728,21-05-2020,14:47:58
5d94aee42efd5f0017023e9e,18,female,1,1,43,Clear_profit_side,no_enforcement2,0,0,-,left,9,16,1000,1.45,left,left,2,1,1,0.169,7,12,138,278,0.278,1.728,21-05-2020,14:47:58
5d94aee42efd5f0017023e9e,18,female,1,1,44,Clear_not_profit_side,no_enforcement2,0,0,-,left,16,9,1000,1.45,right,right,1,2,1,0.159,7,12,138,278,0.278,1.728,21-05-2020,14:47:58
5d94aee42efd5f0017023e9e,18,female,1,1,45,Clear_not_profit_side,no_enforcement2,0,0,-,left,16,9,1000,1.45,right,right,1,2,1,0.188,7,12,138,278,0.278,1.728,21-05-2020,14:47:58
5d94aee42efd5f0017023e9e,18,female,1,1,46,Clear_not_profit_side,no_enforcement2,0,0,-,left,16,9,1000,1.45,right,right,1,2,1,0.146,7,12,138,278,0.278,1.728,21-05-2020,14:47:58
5d94aee42efd5f0017023e9e,18,female,1,1,47,Ambigous_right,no_enforcement2,0,0,-,left,14,11,1000,1.45,right,right,1,2,1,0.14,7,12,138,278,0.278,1.728,21-05-2020,14:47:58
5d94aee42efd5f0017023e9e,18,female,1,1,48,Clear_not_profit_side,no_enforcement2,0,0,-,left,16,9,1000,1.45,right,right,1,2,1,0.321,7,12,138,278,0.278,1.728,21-05-2020,14:47:58
5d94aee42efd5f0017023e9e,18,female,1,1,49,Clear_profit_side,no_enforcement2,0,0,-,left,9,16,1000,1.45,left,left,2,1,1,0.173,7,12,138,278,0.278,1.728,21-05-2020,14:47:58
5d94aee42efd5f0017023e9e,18,female,1,1,50,Clear_profit_side,no_enforcement2,0,0,-,left,9,16,1000,1.45,left,left,2,1,1,0.147,7,12,138,278,0.278,1.728,21-05-2020,14:47:58
5d94aee42efd5f0017023e9e,18,female,1,1,51,Clear_not_profit_side,no_enforcement2,0,0,-,left,16,9,1000,1.45,right,right,1,2,1,0.148,7,12,138,278,0.278,1.728,21-05-2020,14:47:58
5d94aee42efd5f0017023e9e,18,female,1,1,52,Clear_profit_side,no_enforcement2,0,0,-,left,9,16,1000,1.45,left,left,2,1,1,0.192,7,12,138,278,0.278,1.728,21-05-2020,14:47:58
5d94aee42efd5f0017023e9e,18,female,1,1,53,Ambigous_left,no_enforcement2,0,0,-,left,11,14,1000,1.45,left,left,2,1,1,0.471,7,12,138,278,0.278,1.728,21-05-2020,14:47:58
5d94aee42efd5f0017023e9e,18,female,1,1,54,Ambigous_right,no_enforcement2,0,0,-,left,14,11,1000,1.45,right,right,1,2,1,0.287,7,12,138,278,0.278,1.728,21-05-2020,14:47:58
5d94aee42efd5f0017023e9e,18,female,1,1,55,Ambigous_left,no_enforcement2,0,0,-,left,11,14,1000,1.45,left,right,1,2,0,0.225,7,12,138,278,0.278,1.728,21-05-2020,14:47:58
5d94aee42efd5f0017023e9e,18,female,1,1,56,Ambigous_right,no_enforcement2,0,0,-,left,14,11,1000,1.45,right,right,1,2,1,0.171,7,12,138,278,0.278,1.728,21-05-2020,14:47:58
5d94aee42efd5f0017023e9e,18,female,1,1,57,Ambigous_left,no_enforcement2,0,0,-,left,11,14,1000,1.45,left,left,2,1,1,0.188,7,12,138,278,0.278,1.728,21-05-2020,14:47:58
5d94aee42efd5f0017023e9e,18,female,1,1,58,Clear_not_profit_side,no_enforcement2,0,0,-,left,16,9,1000,1.45,right,right,1,2,1,0.227,7,12,138,278,0.278,1.728,21-05-2020,14:47:58
5d94aee42efd5f0017023e9e,18,female,1,1,59,Ambigous_left,no_enforcement2,0,0,-,left,11,14,1000,1.45,left,left,2,1,1,0.226,7,12,138,278,0.278,1.728,21-05-2020,14:47:58
5d94aee42efd5f0017023e9e,18,female,1,1,60,Clear_not_profit_side,no_enforcement2,0,0,-,left,16,9,1000,1.45,right,right,1,2,1,0.3,7,12,138,278,0.278,1.728,21-05-2020,14:47:58
5d94aee42efd5f0017023e9e,18,female,1,1,61,Ambigous_right,no_enforcement2,0,0,-,left,14,11,1000,1.45,right,right,1,2,1,0.177,7,12,138,278,0.278,1.728,21-05-2020,14:47:58
5d94aee42efd5f0017023e9e,18,female,1,1,62,Ambigous_left,no_enforcement2,0,0,-,left,11,14,1000,1.45,left,right,1,2,0,0.196,7,12,138,278,0.278,1.728,21-05-2020,14:47:58
5d94aee42efd5f0017023e9e,18,female,1,1,63,Ambigous_left,no_enforcement2,0,0,-,left,11,14,1000,1.45,left,left,2,1,1,0.459,7,12,138,278,0.278,1.728,21-05-2020,14:47:58
5d94aee42efd5f0017023e9e,18,female,1,1,64,Clear_not_profit_side,no_enforcement2,0,0,-,left,16,9,1000,1.45,right,right,1,2,1,0.206,7,12,138,278,0.278,1.728,21-05-2020,14:47:58
5d94aee42efd5f0017023e9e,18,female,1,1,65,Clear_profit_side,no_enforcement2,0,0,-,left,9,16,1000,1.45,left,left,2,1,1,0.187,7,12,138,278,0.278,1.728,21-05-2020,14:47:58
5d94aee42efd5f0017023e9e,18,female,1,1,66,Ambigous_left,no_enforcement2,0,0,-,left,11,14,1000,1.45,left,left,2,1,1,0.249,7,12,138,278,0.278,1.728,21-05-2020,14:47:58
5d94aee42efd5f0017023e9e,18,female,1,1,67,Clear_profit_side,no_enforcement2,0,0,-,left,9,16,1000,1.45,left,left,2,1,1,0.177,7,12,138,278,0.278,1.728,21-05-2020,14:47:58
5d94aee42efd5f0017023e9e,18,female,1,1,68,Clear_not_profit_side,no_enforcement2,0,0,-,left,16,9,1000,1.45,right,right,1,2,1,0.195,7,12,138,278,0.278,1.728,21-05-2020,14:47:58
5d94aee42efd5f0017023e9e,18,female,1,1,69,Clear_not_profit_side,no_enforcement2,0,0,-,left,16,9,1000,1.45,right,right,1,2,1,0.145,7,12,138,278,0.278,1.728,21-05-2020,14:47:58
5d94aee42efd5f0017023e9e,18,female,1,1,70,Ambigous_right,no_enforcement2,0,0,-,left,14,11,1000,1.45,right,right,1,2,1,0.146,7,12,138,278,0.278,1.728,21-05-2020,14:47:58
5d94aee42efd5f0017023e9e,18,female,1,1,71,Ambigous_left,no_enforcement2,0,0,-,left,11,14,1000,1.45,left,left,2,1,1,0.221,7,12,138,278,0.278,1.728,21-05-2020,14:47:58
5d94aee42efd5f0017023e9e,18,female,1,1,72,Clear_not_profit_side,no_enforcement2,0,0,-,left,16,9,1000,1.45,right,right,1,2,1,0.178,7,12,138,278,0.278,1.728,21-05-2020,14:47:58
5d94aee42efd5f0017023e9e,18,female,1,1,73,Ambigous_right,no_enforcement2,0,0,-,left,14,11,1000,1.45,right,right,1,2,1,0.379,7,12,138,278,0.278,1.728,21-05-2020,14:47:58
5d94aee42efd5f0017023e9e,18,female,1,1,74,Ambigous_right,no_enforcement2,0,0,-,left,14,11,1000,1.45,right,right,1,2,1,0.168,7,12,138,278,0.278,1.728,21-05-2020,14:47:58
5d94aee42efd5f0017023e9e,18,female,1,1,75,Clear_profit_side,no_enforcement2,0,0,-,left,9,16,1000,1.45,left,left,2,1,1,0.171,7,12,138,278,0.278,1.728,21-05-2020,14:47:58
5d94aee42efd5f0017023e9e,18,female,1,1,76,Clear_profit_side,no_enforcement2,0,0,-,left,9,16,1000,1.45,left,left,2,1,1,0.14,7,12,138,278,0.278,1.728,21-05-2020,14:47:58
5d94aee42efd5f0017023e9e,18,female,1,1,77,Ambigous_right,no_enforcement2,0,0,-,left,14,11,1000,1.45,right,right,1,2,1,0.153,7,12,138,278,0.278,1.728,21-05-2020,14:47:58
5d94aee42efd5f0017023e9e,18,female,1,1,78,Ambigous_left,no_enforcement2,0,0,-,left,11,14,1000,1.45,left,left,2,1,1,0.312,7,12,138,278,0.278,1.728,21-05-2020,14:47:58
5d94aee42efd5f0017023e9e,18,female,1,1,79,Ambigous_left,no_enforcement2,0,0,-,left,11,14,1000,1.45,left,left,2,1,1,0.231,7,12,138,278,0.278,1.728,21-05-2020,14:47:58
5d94aee42efd5f0017023e9e,18,female,1,1,80,Ambigous_left,no_enforcement2,0,0,-,left,11,14,1000,1.45,left,left,2,1,1,0.174,7,12,138,278,0.278,1.728,21-05-2020,14:47:58
5d94aee42efd5f0017023e9e,18,female,1,1,81,Clear_profit_side,no_enforcement2,0,0,-,left,9,16,1000,1.45,left,left,2,1,1,0.175,7,12,138,278,0.278,1.728,21-05-2020,14:47:58
5d94aee42efd5f0017023e9e,18,female,1,1,82,Ambigous_right,no_enforcement2,0,0,-,left,14,11,1000,1.45,right,right,1,2,1,0.158,7,12,138,278,0.278,1.728,21-05-2020,14:47:58
5d94aee42efd5f0017023e9e,18,female,1,1,83,Ambigous_left,no_enforcement2,0,0,-,left,11,14,1000,1.45,left,right,1,2,0,0.365,7,12,138,278,0.278,1.728,21-05-2020,14:47:58
5d94aee42efd5f0017023e9e,18,female,1,1,84,Ambigous_right,no_enforcement2,0,0,-,left,14,11,1000,1.45,right,right,1,2,1,0.217,7,12,138,278,0.278,1.728,21-05-2020,14:47:58
5d94aee42efd5f0017023e9e,18,female,1,1,85,Ambigous_left,no_enforcement2,0,0,-,left,11,14,1000,1.45,left,left,2,1,1,0.211,7,12,138,278,0.278,1.728,21-05-2020,14:47:58
5d94aee42efd5f0017023e9e,18,female,1,1,86,Ambigous_right,no_enforcement2,0,0,-,left,14,11,1000,1.45,right,right,1,2,1,0.195,7,12,138,278,0.278,1.728,21-05-2020,14:47:58
5d94aee42efd5f0017023e9e,18,female,1,1,87,Clear_not_profit_side,no_enforcement2,0,0,-,left,16,9,1000,1.45,right,right,1,2,1,0.165,7,12,138,278,0.278,1.728,21-05-2020,14:47:58
5d94aee42efd5f0017023e9e,18,female,1,1,88,Clear_not_profit_side,no_enforcement2,0,0,-,left,16,9,1000,1.45,right,right,1,2,1,0.145,7,12,138,278,0.278,1.728,21-05-2020,14:47:58
5d94aee42efd5f0017023e9e,18,female,1,1,89,Clear_not_profit_side,no_enforcement2,0,0,-,left,16,9,1000,1.45,right,right,1,2,1,0.385,7,12,138,278,0.278,1.728,21-05-2020,14:47:58
5d94aee42efd5f0017023e9e,18,female,1,1,90,Clear_profit_side,no_enforcement2,0,0,-,left,9,16,1000,1.45,left,left,2,1,1,0.321,7,12,138,278,0.278,1.728,21-05-2020,14:47:58
5d94aee42efd5f0017023e9e,18,female,1,1,91,Clear_profit_side,no_enforcement2,0,0,-,left,9,16,1000,1.45,left,left,2,1,1,0.181,7,12,138,278,0.278,1.728,21-05-2020,14:47:58
5d94aee42efd5f0017023e9e,18,female,1,1,92,Ambigous_left,no_enforcement2,0,0,-,left,11,14,1000,1.45,left,left,2,1,1,0.346,7,12,138,278,0.278,1.728,21-05-2020,14:47:58
5d94aee42efd5f0017023e9e,18,female,1,1,93,Clear_not_profit_side,no_enforcement2,0,0,-,left,16,9,1000,1.45,right,right,1,2,1,0.193,7,12,138,278,0.278,1.728,21-05-2020,14:47:58
5d94aee42efd5f0017023e9e,18,female,1,1,94,Ambigous_right,no_enforcement2,0,0,-,left,14,11,1000,1.45,right,right,1,2,1,0.166,7,12,138,278,0.278,1.728,21-05-2020,14:47:58
5d94aee42efd5f0017023e9e,18,female,1,1,95,Clear_not_profit_side,no_enforcement2,0,0,-,left,16,9,1000,1.45,right,right,1,2,1,0.145,7,12,138,278,0.278,1.728,21-05-2020,14:47:58
5d94aee42efd5f0017023e9e,18,female,1,1,96,Clear_not_profit_side,no_enforcement2,0,0,-,left,16,9,1000,1.45,right,right,1,2,1,0.155,7,12,138,278,0.278,1.728,21-05-2020,14:47:58
5d94aee42efd5f0017023e9e,18,female,1,1,97,Clear_not_profit_side,no_enforcement2,0,0,-,left,16,9,1000,1.45,right,right,1,2,1,0.154,7,12,138,278,0.278,1.728,21-05-2020,14:47:58
5d94aee42efd5f0017023e9e,18,female,1,1,98,Ambigous_right,no_enforcement2,0,0,-,left,14,11,1000,1.45,right,right,1,2,1,0.157,7,12,138,278,0.278,1.728,21-05-2020,14:47:58
5d94aee42efd5f0017023e9e,18,female,1,1,99,Ambigous_left,no_enforcement2,0,0,-,left,11,14,1000,1.45,left,left,2,1,1,0.386,7,12,138,278,0.278,1.728,21-05-2020,14:47:58
5d94aee42efd5f0017023e9e,18,female,1,1,100,Ambigous_right,no_enforcement2,0,0,-,left,14,11,1000,1.45,right,left,2,1,0,0.748,7,12,138,278,0.278,1.728,21-05-2020,14:47:58
5d94aee42efd5f0017023e9e,18,female,1,2,1,Ambigous_left,no_enforcement2,0,0,-,left,11,14,1000,1.45,left,left,2,1,1,0.144,5,12,140,278,0.278,1.728,21-05-2020,14:47:58
5d94aee42efd5f0017023e9e,18,female,1,2,2,Clear_not_profit_side,no_enforcement2,0,0,-,left,16,9,1000,1.45,right,right,1,2,1,0.263,5,12,140,278,0.278,1.728,21-05-2020,14:47:58
5d94aee42efd5f0017023e9e,18,female,1,2,3,Clear_not_profit_side,no_enforcement2,0,0,-,left,16,9,1000,1.45,right,right,1,2,1,0.164,5,12,140,278,0.278,1.728,21-05-2020,14:47:58
5d94aee42efd5f0017023e9e,18,female,1,2,4,Clear_not_profit_side,no_enforcement2,0,0,-,left,16,9,1000,1.45,right,right,1,2,1,0.184,5,12,140,278,0.278,1.728,21-05-2020,14:47:58
5d94aee42efd5f0017023e9e,18,female,1,2,5,Clear_not_profit_side,no_enforcement2,0,0,-,left,16,9,1000,1.45,right,right,1,2,1,0.22,5,12,140,278,0.278,1.728,21-05-2020,14:47:58
5d94aee42efd5f0017023e9e,18,female,1,2,6,Ambigous_right,no_enforcement2,0,0,-,left,14,11,1000,1.45,right,right,1,2,1,0.17,5,12,140,278,0.278,1.728,21-05-2020,14:47:58
5d94aee42efd5f0017023e9e,18,female,1,2,7,Ambigous_right,no_enforcement2,0,0,-,left,14,11,1000,1.45,right,right,1,2,1,0.251,5,12,140,278,0.278,1.728,21-05-2020,14:47:58
5d94aee42efd5f0017023e9e,18,female,1,2,8,Clear_not_profit_side,no_enforcement2,0,0,-,left,16,9,1000,1.45,right,right,1,2,1,0.316,5,12,140,278,0.278,1.728,21-05-2020,14:47:58
5d94aee42efd5f0017023e9e,18,female,1,2,9,Clear_not_profit_side,no_enforcement2,0,0,-,left,16,9,1000,1.45,right,right,1,2,1,0.182,5,12,140,278,0.278,1.728,21-05-2020,14:47:58
5d94aee42efd5f0017023e9e,18,female,1,2,10,Ambigous_right,no_enforcement2,0,0,-,left,14,11,1000,1.45,right,right,1,2,1,0.224,5,12,140,278,0.278,1.728,21-05-2020,14:47:58
5d94aee42efd5f0017023e9e,18,female,1,2,11,Clear_not_profit_side,no_enforcement2,0,0,-,left,16,9,1000,1.45,right,right,1,2,1,0.156,5,12,140,278,0.278,1.728,21-05-2020,14:47:58
5d94aee42efd5f0017023e9e,18,female,1,2,12,Clear_not_profit_side,no_enforcement2,0,0,-,left,16,9,1000,1.45,right,right,1,2,1,0.187,5,12,140,278,0.278,1.728,21-05-2020,14:47:58
5d94aee42efd5f0017023e9e,18,female,1,2,13,Ambigous_left,no_enforcement2,0,0,-,left,11,14,1000,1.45,left,left,2,1,1,0.319,5,12,140,278,0.278,1.728,21-05-2020,14:47:58
5d94aee42efd5f0017023e9e,18,female,1,2,14,Ambigous_right,no_enforcement2,0,0,-,left,14,11,1000,1.45,right,right,1,2,1,0.47,5,12,140,278,0.278,1.728,21-05-2020,14:47:58
5d94aee42efd5f0017023e9e,18,female,1,2,15,Clear_not_profit_side,no_enforcement2,0,0,-,left,16,9,1000,1.45,right,right,1,2,1,0.164,5,12,140,278,0.278,1.728,21-05-2020,14:47:58
5d94aee42efd5f0017023e9e,18,female,1,2,16,Clear_not_profit_side,no_enforcement2,0,0,-,left,16,9,1000,1.45,right,right,1,2,1,0.183,5,12,140,278,0.278,1.728,21-05-2020,14:47:58
5d94aee42efd5f0017023e9e,18,female,1,2,17,Ambigous_right,no_enforcement2,0,0,-,left,14,11,1000,1.45,right,right,1,2,1,0.294,5,12,140,278,0.278,1.728,21-05-2020,14:47:58
5d94aee42efd5f0017023e9e,18,female,1,2,18,Ambigous_left,no_enforcement2,0,0,-,left,11,14,1000,1.45,left,left,2,1,1,0.285,5,12,140,278,0.278,1.728,21-05-2020,14:47:58
5d94aee42efd5f0017023e9e,18,female,1,2,19,Ambigous_right,no_enforcement2,0,0,-,left,14,11,1000,1.45,right,left,2,1,0,0.181,5,12,140,278,0.278,1.728,21-05-2020,14:47:58
5d94aee42efd5f0017023e9e,18,female,1,2,20,Clear_not_profit_side,no_enforcement2,0,0,-,left,16,9,1000,1.45,right,right,1,2,1,0.252,5,12,140,278,0.278,1.728,21-05-2020,14:47:58
5d94aee42efd5f0017023e9e,18,female,1,2,21,Clear_not_profit_side,no_enforcement2,0,0,-,left,16,9,1000,1.45,right,right,1,2,1,0.158,5,12,140,278,0.278,1.728,21-05-2020,14:47:58
5d94aee42efd5f0017023e9e,18,female,1,2,22,Clear_not_profit_side,no_enforcement2,0,0,-,left,16,9,1000,1.45,right,right,1,2,1,0.152,5,12,140,278,0.278,1.728,21-05-2020,14:47:58
5d94aee42efd5f0017023e9e,18,female,1,2,23,Ambigous_left,no_enforcement2,0,0,-,left,11,14,1000,1.45,left,left,2,1,1,0.186,5,12,140,278,0.278,1.728,21-05-2020,14:47:58
5d94aee42efd5f0017023e9e,18,female,1,2,24,Ambigous_right,no_enforcement2,0,0,-,left,14,11,1000,1.45,right,right,1,2,1,0.25,5,12,140,278,0.278,1.728,21-05-2020,14:47:58
5d94aee42efd5f0017023e9e,18,female,1,2,25,Clear_profit_side,no_enforcement2,0,0,-,left,9,16,1000,1.45,left,left,2,1,1,0.199,5,12,140,278,0.278,1.728,21-05-2020,14:47:58
5d94aee42efd5f0017023e9e,18,female,1,2,26,Ambigous_right,no_enforcement2,0,0,-,left,14,11,1000,1.45,right,right,1,2,1,0.208,5,12,140,278,0.278,1.728,21-05-2020,14:47:58
5d94aee42efd5f0017023e9e,18,female,1,2,27,Ambigous_right,no_enforcement2,0,0,-,left,14,11,1000,1.45,right,left,2,1,0,0.201,5,12,140,278,0.278,1.728,21-05-2020,14:47:58
5d94aee42efd5f0017023e9e,18,female,1,2,28,Clear_profit_side,no_enforcement2,0,0,-,left,9,16,1000,1.45,left,left,2,1,1,0.157,5,12,140,278,0.278,1.728,21-05-2020,14:47:58
5d94aee42efd5f0017023e9e,18,female,1,2,29,Ambigous_right,no_enforcement2,0,0,-,left,14,11,1000,1.45,right,right,1,2,1,0.246,5,12,140,278,0.278,1.728,21-05-2020,14:47:58
5d94aee42efd5f0017023e9e,18,female,1,2,30,Clear_profit_side,no_enforcement2,0,0,-,left,9,16,1000,1.45,left,left,2,1,1,0.201,5,12,140,278,0.278,1.728,21-05-2020,14:47:58
5d94aee42efd5f0017023e9e,18,female,1,2,31,Clear_profit_side,no_enforcement2,0,0,-,left,9,16,1000,1.45,left,left,2,1,1,0.163,5,12,140,278,0.278,1.728,21-05-2020,14:47:58
5d94aee42efd5f0017023e9e,18,female,1,2,32,Clear_profit_side,no_enforcement2,0,0,-,left,9,16,1000,1.45,left,left,2,1,1,0.148,5,12,140,278,0.278,1.728,21-05-2020,14:47:58
5d94aee42efd5f0017023e9e,18,female,1,2,33,Ambigous_right,no_enforcement2,0,0,-,left,14,11,1000,1.45,right,right,1,2,1,0.183,5,12,140,278,0.278,1.728,21-05-2020,14:47:58
5d94aee42efd5f0017023e9e,18,female,1,2,34,Ambigous_left,no_enforcement2,0,0,-,left,11,14,1000,1.45,left,left,2,1,1,0.17,5,12,140,278,0.278,1.728,21-05-2020,14:47:58
5d94aee42efd5f0017023e9e,18,female,1,2,35,Ambigous_right,no_enforcement2,0,0,-,left,14,11,1000,1.45,right,right,1,2,1,0.211,5,12,140,278,0.278,1.728,21-05-2020,14:47:58
5d94aee42efd5f0017023e9e,18,female,1,2,36,Ambigous_left,no_enforcement2,0,0,-,left,11,14,1000,1.45,left,left,2,1,1,0.183,5,12,140,278,0.278,1.728,21-05-2020,14:47:58
5d94aee42efd5f0017023e9e,18,female,1,2,37,Clear_not_profit_side,no_enforcement2,0,0,-,left,16,9,1000,1.45,right,right,1,2,1,0.221,5,12,140,278,0.278,1.728,21-05-2020,14:47:58
5d94aee42efd5f0017023e9e,18,female,1,2,38,Clear_not_profit_side,no_enforcement2,0,0,-,left,16,9,1000,1.45,right,right,1,2,1,0.197,5,12,140,278,0.278,1.728,21-05-2020,14:47:58
5d94aee42efd5f0017023e9e,18,female,1,2,39,Ambigous_left,no_enforcement2,0,0,-,left,11,14,1000,1.45,left,left,2,1,1,0.209,5,12,140,278,0.278,1.728,21-05-2020,14:47:58
5d94aee42efd5f0017023e9e,18,female,1,2,40,Ambigous_right,no_enforcement2,0,0,-,left,14,11,1000,1.45,right,right,1,2,1,0.228,5,12,140,278,0.278,1.728,21-05-2020,14:47:58
5d94aee42efd5f0017023e9e,18,female,1,2,41,Clear_profit_side,no_enforcement2,0,0,-,left,9,16,1000,1.45,left,left,2,1,1,0.202,5,12,140,278,0.278,1.728,21-05-2020,14:47:58
5d94aee42efd5f0017023e9e,18,female,1,2,42,Clear_not_profit_side,no_enforcement2,0,0,-,left,16,9,1000,1.45,right,right,1,2,1,0.215,5,12,140,278,0.278,1.728,21-05-2020,14:47:58
5d94aee42efd5f0017023e9e,18,female,1,2,43,Clear_not_profit_side,no_enforcement2,0,0,-,left,16,9,1000,1.45,right,right,1,2,1,0.193,5,12,140,278,0.278,1.728,21-05-2020,14:47:58
5d94aee42efd5f0017023e9e,18,female,1,2,44,Clear_not_profit_side,no_enforcement2,0,0,-,left,16,9,1000,1.45,right,right,1,2,1,0.162,5,12,140,278,0.278,1.728,21-05-2020,14:47:58
5d94aee42efd5f0017023e9e,18,female,1,2,45,Ambigous_left,no_enforcement2,0,0,-,left,11,14,1000,1.45,left,left,2,1,1,0.206,5,12,140,278,0.278,1.728,21-05-2020,14:47:58
5d94aee42efd5f0017023e9e,18,female,1,2,46,Clear_profit_side,no_enforcement2,0,0,-,left,9,16,1000,1.45,left,left,2,1,1,0.15,5,12,140,278,0.278,1.728,21-05-2020,14:47:58
5d94aee42efd5f0017023e9e,18,female,1,2,47,Clear_profit_side,no_enforcement2,0,0,-,left,9,16,1000,1.45,left,left,2,1,1,0.138,5,12,140,278,0.278,1.728,21-05-2020,14:47:58
5d94aee42efd5f0017023e9e,18,female,1,2,48,Ambigous_left,no_enforcement2,0,0,-,left,11,14,1000,1.45,left,left,2,1,1,0.165,5,12,140,278,0.278,1.728,21-05-2020,14:47:58
5d94aee42efd5f0017023e9e,18,female,1,2,49,Ambigous_right,no_enforcement2,0,0,-,left,14,11,1000,1.45,right,right,1,2,1,0.185,5,12,140,278,0.278,1.728,21-05-2020,14:47:58
5d94aee42efd5f0017023e9e,18,female,1,2,50,Ambigous_left,no_enforcement2,0,0,-,left,11,14,1000,1.45,left,left,2,1,1,0.262,5,12,140,278,0.278,1.728,21-05-2020,14:47:58
5d94aee42efd5f0017023e9e,18,female,1,2,51,Ambigous_left,no_enforcement2,0,0,-,left,11,14,1000,1.45,left,left,2,1,1,0.177,5,12,140,278,0.278,1.728,21-05-2020,14:47:58
5d94aee42efd5f0017023e9e,18,female,1,2,52,Clear_profit_side,no_enforcement2,0,0,-,left,9,16,1000,1.45,left,left,2,1,1,0.168,5,12,140,278,0.278,1.728,21-05-2020,14:47:58
5d94aee42efd5f0017023e9e,18,female,1,2,53,Ambigous_left,no_enforcement2,0,0,-,left,11,14,1000,1.45,left,left,2,1,1,0.16,5,12,140,278,0.278,1.728,21-05-2020,14:47:58
5d94aee42efd5f0017023e9e,18,female,1,2,54,Ambigous_right,no_enforcement2,0,0,-,left,14,11,1000,1.45,right,right,1,2,1,0.186,5,12,140,278,0.278,1.728,21-05-2020,14:47:58
5d94aee42efd5f0017023e9e,18,female,1,2,55,Clear_not_profit_side,no_enforcement2,0,0,-,left,16,9,1000,1.45,right,right,1,2,1,0.464,5,12,140,278,0.278,1.728,21-05-2020,14:47:58
5d94aee42efd5f0017023e9e,18,female,1,2,56,Clear_not_profit_side,no_enforcement2,0,0,-,left,16,9,1000,1.45,right,right,1,2,1,0.222,5,12,140,278,0.278,1.728,21-05-2020,14:47:58
5d94aee42efd5f0017023e9e,18,female,1,2,57,Ambigous_left,no_enforcement2,0,0,-,left,11,14,1000,1.45,left,right,1,2,0,0.247,5,12,140,278,0.278,1.728,21-05-2020,14:47:58
5d94aee42efd5f0017023e9e,18,female,1,2,58,Clear_not_profit_side,no_enforcement2,0,0,-,left,16,9,1000,1.45,right,right,1,2,1,0.153,5,12,140,278,0.278,1.728,21-05-2020,14:47:58
5d94aee42efd5f0017023e9e,18,female,1,2,59,Clear_not_profit_side,no_enforcement2,0,0,-,left,16,9,1000,1.45,right,right,1,2,1,0.151,5,12,140,278,0.278,1.728,21-05-2020,14:47:58
5d94aee42efd5f0017023e9e,18,female,1,2,60,Clear_not_profit_side,no_enforcement2,0,0,-,left,16,9,1000,1.45,right,right,1,2,1,0.133,5,12,140,278,0.278,1.728,21-05-2020,14:47:58
5d94aee42efd5f0017023e9e,18,female,1,2,61,Ambigous_right,no_enforcement2,0,0,-,left,14,11,1000,1.45,right,right,1,2,1,0.153,5,12,140,278,0.278,1.728,21-05-2020,14:47:58
5d94aee42efd5f0017023e9e,18,female,1,2,62,Clear_profit_side,no_enforcement2,0,0,-,left,9,16,1000,1.45,left,left,2,1,1,0.243,5,12,140,278,0.278,1.728,21-05-2020,14:47:58
5d94aee42efd5f0017023e9e,18,female,1,2,63,Ambigous_left,no_enforcement2,0,0,-,left,11,14,1000,1.45,left,left,2,1,1,0.164,5,12,140,278,0.278,1.728,21-05-2020,14:47:58
5d94aee42efd5f0017023e9e,18,female,1,2,64,Ambigous_left,no_enforcement2,0,0,-,left,11,14,1000,1.45,left,left,2,1,1,0.197,5,12,140,278,0.278,1.728,21-05-2020,14:47:58
5d94aee42efd5f0017023e9e,18,female,1,2,65,Clear_not_profit_side,no_enforcement2,0,0,-,left,16,9,1000,1.45,right,right,1,2,1,0.22,5,12,140,278,0.278,1.728,21-05-2020,14:47:58
