user_id,age,gender,attention,block_number,trial_number,trial_type,conditions,p_inspection,inspection,fine_size,profitable_side,points_right,points_left,exchange_ratio,basic_payment,true_side,choice,trial_payoff,alternative_payoff,choice_correct,rt_choice,block_errors,final_errors,block_payoff,final_payoff,bonus,final_payment,date,time
56100d727ffc8a0005811338,43,female,1,1,1,Clear_not_profit_side,no_enforcement2,0,0,-,left,16,9,1000,1.45,right,right,1,2,1,0.498,6,13,141,277,0.277,1.7269999999999999,27-05-2020,17:26:49
56100d727ffc8a0005811338,43,female,1,1,2,Clear_not_profit_side,no_enforcement2,0,0,-,left,16,9,1000,1.45,right,right,1,2,1,0.513,6,13,141,277,0.277,1.7269999999999999,27-05-2020,17:26:49
56100d727ffc8a0005811338,43,female,1,1,3,Ambigous_left,no_enforcement2,0,0,-,left,11,14,1000,1.45,left,left,2,1,1,0.285,6,13,141,277,0.277,1.7269999999999999,27-05-2020,17:26:49
56100d727ffc8a0005811338,43,female,1,1,4,Ambigous_left,no_enforcement2,0,0,-,left,11,14,1000,1.45,left,left,2,1,1,0.347,6,13,141,277,0.277,1.7269999999999999,27-05-2020,17:26:49
56100d727ffc8a0005811338,43,female,1,1,5,Ambigous_right,no_enforcement2,0,0,-,left,14,11,1000,1.45,right,right,1,2,1,0.345,6,13,141,277,0.277,1.7269999999999999,27-05-2020,17:26:49
56100d727ffc8a0005811338,43,female,1,1,6,Ambigous_left,no_enforcement2,0,0,-,left,11,14,1000,1.45,left,left,2,1,1,0.268,6,13,141,277,0.277,1.7269999999999999,27-05-2020,17:26:49
56100d727ffc8a0005811338,43,female,1,1,7,Clear_not_profit_side,no_enforcement2,0,0,-,left,16,9,1000,1.45,right,right,1,2,1,0.236,6,13,141,277,0.277,1.7269999999999999,27-05-2020,17:26:49
56100d727ffc8a0005811338,43,female,1,1,8,Clear_not_profit_side,no_enforcement2,0,0,-,left,16,9,1000,1.45,right,right,1,2,1,0.652,6,13,141,277,0.277,1.7269999999999999,27-05-2020,17:26:49
56100d727ffc8a0005811338,43,female,1,1,9,Clear_not_profit_side,no_enforcement2,0,0,-,left,16,9,1000,1.45,right,right,1,2,1,0.335,6,13,141,277,0.277,1.7269999999999999,27-05-2020,17:26:49
56100d727ffc8a0005811338,43,female,1,1,10,Clear_not_profit_side,no_enforcement2,0,0,-,left,16,9,1000,1.45,right,right,1,2,1,0.233,6,13,141,277,0.277,1.7269999999999999,27-05-2020,17:26:49
56100d727ffc8a0005811338,43,female,1,1,11,Ambigous_right,no_enforcement2,0,0,-,left,14,11,1000,1.45,right,right,1,2,1,0.407,6,13,141,277,0.277,1.7269999999999999,27-05-2020,17:26:49
56100d727ffc8a0005811338,43,female,1,1,12,Clear_profit_side,no_enforcement2,0,0,-,left,9,16,1000,1.45,left,left,2,1,1,0.318,6,13,141,277,0.277,1.7269999999999999,27-05-2020,17:26:49
56100d727ffc8a0005811338,43,female,1,1,13,Ambigous_right,no_enforcement2,0,0,-,left,14,11,1000,1.45,right,right,1,2,1,0.294,6,13,141,277,0.277,1.7269999999999999,27-05-2020,17:26:49
56100d727ffc8a0005811338,43,female,1,1,14,Ambigous_right,no_enforcement2,0,0,-,left,14,11,1000,1.45,right,right,1,2,1,0.461,6,13,141,277,0.277,1.7269999999999999,27-05-2020,17:26:49
56100d727ffc8a0005811338,43,female,1,1,15,Ambigous_left,no_enforcement2,0,0,-,left,11,14,1000,1.45,left,left,2,1,1,0.28,6,13,141,277,0.277,1.7269999999999999,27-05-2020,17:26:49
56100d727ffc8a0005811338,43,female,1,1,16,Ambigous_left,no_enforcement2,0,0,-,left,11,14,1000,1.45,left,left,2,1,1,0.221,6,13,141,277,0.277,1.7269999999999999,27-05-2020,17:26:49
56100d727ffc8a0005811338,43,female,1,1,17,Ambigous_right,no_enforcement2,0,0,-,left,14,11,1000,1.45,right,left,2,1,0,0.235,6,13,141,277,0.277,1.7269999999999999,27-05-2020,17:26:49
56100d727ffc8a0005811338,43,female,1,1,18,Clear_not_profit_side,no_enforcement2,0,0,-,left,16,9,1000,1.45,right,right,1,2,1,0.31,6,13,141,277,0.277,1.7269999999999999,27-05-2020,17:26:49
56100d727ffc8a0005811338,43,female,1,1,19,Ambigous_right,no_enforcement2,0,0,-,left,14,11,1000,1.45,right,right,1,2,1,0.31,6,13,141,277,0.277,1.7269999999999999,27-05-2020,17:26:49
56100d727ffc8a0005811338,43,female,1,1,20,Ambigous_right,no_enforcement2,0,0,-,left,14,11,1000,1.45,right,right,1,2,1,0.491,6,13,141,277,0.277,1.7269999999999999,27-05-2020,17:26:49
56100d727ffc8a0005811338,43,female,1,1,21,Clear_not_profit_side,no_enforcement2,0,0,-,left,16,9,1000,1.45,right,right,1,2,1,0.288,6,13,141,277,0.277,1.7269999999999999,27-05-2020,17:26:49
56100d727ffc8a0005811338,43,female,1,1,22,Clear_not_profit_side,no_enforcement2,0,0,-,left,16,9,1000,1.45,right,right,1,2,1,0.612,6,13,141,277,0.277,1.7269999999999999,27-05-2020,17:26:49
56100d727ffc8a0005811338,43,female,1,1,23,Ambigous_right,no_enforcement2,0,0,-,left,14,11,1000,1.45,right,right,1,2,1,0.224,6,13,141,277,0.277,1.7269999999999999,27-05-2020,17:26:49
56100d727ffc8a0005811338,43,female,1,1,24,Ambigous_right,no_enforcement2,0,0,-,left,14,11,1000,1.45,right,right,1,2,1,0.189,6,13,141,277,0.277,1.7269999999999999,27-05-2020,17:26:49
56100d727ffc8a0005811338,43,female,1,1,25,Clear_profit_side,no_enforcement2,0,0,-,left,9,16,1000,1.45,left,left,2,1,1,0.25,6,13,141,277,0.277,1.7269999999999999,27-05-2020,17:26:49
56100d727ffc8a0005811338,43,female,1,1,26,Ambigous_right,no_enforcement2,0,0,-,left,14,11,1000,1.45,right,right,1,2,1,0.275,6,13,141,277,0.277,1.7269999999999999,27-05-2020,17:26:49
56100d727ffc8a0005811338,43,female,1,1,27,Clear_profit_side,no_enforcement2,0,0,-,left,9,16,1000,1.45,left,left,2,1,1,0.257,6,13,141,277,0.277,1.7269999999999999,27-05-2020,17:26:49
56100d727ffc8a0005811338,43,female,1,1,28,Clear_not_profit_side,no_enforcement2,0,0,-,left,16,9,1000,1.45,right,right,1,2,1,0.208,6,13,141,277,0.277,1.7269999999999999,27-05-2020,17:26:49
56100d727ffc8a0005811338,43,female,1,1,29,Ambigous_right,no_enforcement2,0,0,-,left,14,11,1000,1.45,right,right,1,2,1,0.534,6,13,141,277,0.277,1.7269999999999999,27-05-2020,17:26:49
56100d727ffc8a0005811338,43,female,1,1,30,Ambigous_left,no_enforcement2,0,0,-,left,11,14,1000,1.45,left,left,2,1,1,0.22,6,13,141,277,0.277,1.7269999999999999,27-05-2020,17:26:49
56100d727ffc8a0005811338,43,female,1,1,31,Clear_profit_side,no_enforcement2,0,0,-,left,9,16,1000,1.45,left,left,2,1,1,0.193,6,13,141,277,0.277,1.7269999999999999,27-05-2020,17:26:49
56100d727ffc8a0005811338,43,female,1,1,32,Clear_not_profit_side,no_enforcement2,0,0,-,left,16,9,1000,1.45,right,right,1,2,1,0.214,6,13,141,277,0.277,1.7269999999999999,27-05-2020,17:26:49
56100d727ffc8a0005811338,43,female,1,1,33,Clear_not_profit_side,no_enforcement2,0,0,-,left,16,9,1000,1.45,right,right,1,2,1,0.454,6,13,141,277,0.277,1.7269999999999999,27-05-2020,17:26:49
56100d727ffc8a0005811338,43,female,1,1,34,Ambigous_left,no_enforcement2,0,0,-,left,11,14,1000,1.45,left,left,2,1,1,0.247,6,13,141,277,0.277,1.7269999999999999,27-05-2020,17:26:49
56100d727ffc8a0005811338,43,female,1,1,35,Clear_not_profit_side,no_enforcement2,0,0,-,left,16,9,1000,1.45,right,right,1,2,1,0.208,6,13,141,277,0.277,1.7269999999999999,27-05-2020,17:26:49
56100d727ffc8a0005811338,43,female,1,1,36,Clear_profit_side,no_enforcement2,0,0,-,left,9,16,1000,1.45,left,left,2,1,1,0.224,6,13,141,277,0.277,1.7269999999999999,27-05-2020,17:26:49
56100d727ffc8a0005811338,43,female,1,1,37,Clear_not_profit_side,no_enforcement2,0,0,-,left,16,9,1000,1.45,right,right,1,2,1,0.258,6,13,141,277,0.277,1.7269999999999999,27-05-2020,17:26:49
56100d727ffc8a0005811338,43,female,1,1,38,Clear_not_profit_side,no_enforcement2,0,0,-,left,16,9,1000,1.45,right,left,2,1,0,0.618,6,13,141,277,0.277,1.7269999999999999,27-05-2020,17:26:49
56100d727ffc8a0005811338,43,female,1,1,39,Clear_not_profit_side,no_enforcement2,0,0,-,left,16,9,1000,1.45,right,right,1,2,1,0.263,6,13,141,277,0.277,1.7269999999999999,27-05-2020,17:26:49
56100d727ffc8a0005811338,43,female,1,1,40,Clear_not_profit_side,no_enforcement2,0,0,-,left,16,9,1000,1.45,right,right,1,2,1,0.245,6,13,141,277,0.277,1.7269999999999999,27-05-2020,17:26:49
56100d727ffc8a0005811338,43,female,1,1,41,Clear_profit_side,no_enforcement2,0,0,-,left,9,16,1000,1.45,left,left,2,1,1,0.22,6,13,141,277,0.277,1.7269999999999999,27-05-2020,17:26:49
56100d727ffc8a0005811338,43,female,1,1,42,Clear_not_profit_side,no_enforcement2,0,0,-,left,16,9,1000,1.45,right,right,1,2,1,0.203,6,13,141,277,0.277,1.7269999999999999,27-05-2020,17:26:49
56100d727ffc8a0005811338,43,female,1,1,43,Ambigous_left,no_enforcement2,0,0,-,left,11,14,1000,1.45,left,right,1,2,0,0.702,6,13,141,277,0.277,1.7269999999999999,27-05-2020,17:26:49
56100d727ffc8a0005811338,43,female,1,1,44,Clear_profit_side,no_enforcement2,0,0,-,left,9,16,1000,1.45,left,left,2,1,1,0.246,6,13,141,277,0.277,1.7269999999999999,27-05-2020,17:26:49
56100d727ffc8a0005811338,43,female,1,1,45,Ambigous_right,no_enforcement2,0,0,-,left,14,11,1000,1.45,right,right,1,2,1,0.26,6,13,141,277,0.277,1.7269999999999999,27-05-2020,17:26:49
56100d727ffc8a0005811338,43,female,1,1,46,Clear_not_profit_side,no_enforcement2,0,0,-,left,16,9,1000,1.45,right,right,1,2,1,0.234,6,13,141,277,0.277,1.7269999999999999,27-05-2020,17:26:49
56100d727ffc8a0005811338,43,female,1,1,47,Ambigous_right,no_enforcement2,0,0,-,left,14,11,1000,1.45,right,right,1,2,1,0.214,6,13,141,277,0.277,1.7269999999999999,27-05-2020,17:26:49
56100d727ffc8a0005811338,43,female,1,1,48,Ambigous_left,no_enforcement2,0,0,-,left,11,14,1000,1.45,left,left,2,1,1,0.246,6,13,141,277,0.277,1.7269999999999999,27-05-2020,17:26:49
56100d727ffc8a0005811338,43,female,1,1,49,Ambigous_right,no_enforcement2,0,0,-,left,14,11,1000,1.45,right,right,1,2,1,0.236,6,13,141,277,0.277,1.7269999999999999,27-05-2020,17:26:49
56100d727ffc8a0005811338,43,female,1,1,50,Ambigous_left,no_enforcement2,0,0,-,left,11,14,1000,1.45,left,left,2,1,1,0.264,6,13,141,277,0.277,1.7269999999999999,27-05-2020,17:26:49
56100d727ffc8a0005811338,43,female,1,1,51,Clear_not_profit_side,no_enforcement2,0,0,-,left,16,9,1000,1.45,right,right,1,2,1,0.181,6,13,141,277,0.277,1.7269999999999999,27-05-2020,17:26:49
56100d727ffc8a0005811338,43,female,1,1,52,Clear_profit_side,no_enforcement2,0,0,-,left,9,16,1000,1.45,left,left,2,1,1,0.243,6,13,141,277,0.277,1.7269999999999999,27-05-2020,17:26:49
56100d727ffc8a0005811338,43,female,1,1,53,Ambigous_left,no_enforcement2,0,0,-,left,11,14,1000,1.45,left,left,2,1,1,0.16,6,13,141,277,0.277,1.7269999999999999,27-05-2020,17:26:49
56100d727ffc8a0005811338,43,female,1,1,54,Ambigous_left,no_enforcement2,0,0,-,left,11,14,1000,1.45,left,left,2,1,1,0.209,6,13,141,277,0.277,1.7269999999999999,27-05-2020,17:26:49
56100d727ffc8a0005811338,43,female,1,1,55,Clear_profit_side,no_enforcement2,0,0,-,left,9,16,1000,1.45,left,left,2,1,1,0.169,6,13,141,277,0.277,1.7269999999999999,27-05-2020,17:26:49
56100d727ffc8a0005811338,43,female,1,1,56,Clear_not_profit_side,no_enforcement2,0,0,-,left,16,9,1000,1.45,right,right,1,2,1,0.217,6,13,141,277,0.277,1.7269999999999999,27-05-2020,17:26:49
56100d727ffc8a0005811338,43,female,1,1,57,Ambigous_left,no_enforcement2,0,0,-,left,11,14,1000,1.45,left,left,2,1,1,0.228,6,13,141,277,0.277,1.7269999999999999,27-05-2020,17:26:49
56100d727ffc8a0005811338,43,female,1,1,58,Clear_not_profit_side,no_enforcement2,0,0,-,left,16,9,1000,1.45,right,right,1,2,1,0.199,6,13,141,277,0.277,1.7269999999999999,27-05-2020,17:26:49
56100d727ffc8a0005811338,43,female,1,1,59,Clear_profit_side,no_enforcement2,0,0,-,left,9,16,1000,1.45,left,left,2,1,1,0.25,6,13,141,277,0.277,1.7269999999999999,27-05-2020,17:26:49
56100d727ffc8a0005811338,43,female,1,1,60,Clear_not_profit_side,no_enforcement2,0,0,-,left,16,9,1000,1.45,right,right,1,2,1,0.203,6,13,141,277,0.277,1.7269999999999999,27-05-2020,17:26:49
56100d727ffc8a0005811338,43,female,1,1,61,Clear_profit_side,no_enforcement2,0,0,-,left,9,16,1000,1.45,left,left,2,1,1,0.226,6,13,141,277,0.277,1.7269999999999999,27-05-2020,17:26:49
56100d727ffc8a0005811338,43,female,1,1,62,Clear_not_profit_side,no_enforcement2,0,0,-,left,16,9,1000,1.45,right,right,1,2,1,0.268,6,13,141,277,0.277,1.7269999999999999,27-05-2020,17:26:49
56100d727ffc8a0005811338,43,female,1,1,63,Ambigous_left,no_enforcement2,0,0,-,left,11,14,1000,1.45,left,left,2,1,1,0.23,6,13,141,277,0.277,1.7269999999999999,27-05-2020,17:26:49
56100d727ffc8a0005811338,43,female,1,1,64,Ambigous_right,no_enforcement2,0,0,-,left,14,11,1000,1.45,right,right,1,2,1,0.21,6,13,141,277,0.277,1.7269999999999999,27-05-2020,17:26:49
56100d727ffc8a0005811338,43,female,1,1,65,Ambigous_right,no_enforcement2,0,0,-,left,14,11,1000,1.45,right,right,1,2,1,0.545,6,13,141,277,0.277,1.7269999999999999,27-05-2020,17:26:49
56100d727ffc8a0005811338,43,female,1,1,66,Clear_not_profit_side,no_enforcement2,0,0,-,left,16,9,1000,1.45,right,right,1,2,1,0.469,6,13,141,277,0.277,1.7269999999999999,27-05-2020,17:26:49
56100d727ffc8a0005811338,43,female,1,1,67,Ambigous_left,no_enforcement2,0,0,-,left,11,14,1000,1.45,left,right,1,2,0,0.64,6,13,141,277,0.277,1.7269999999999999,27-05-2020,17:26:49
56100d727ffc8a0005811338,43,female,1,1,68,Ambigous_right,no_enforcement2,0,0,-,left,14,11,1000,1.45,right,right,1,2,1,0.622,6,13,141,277,0.277,1.7269999999999999,27-05-2020,17:26:49
56100d727ffc8a0005811338,43,female,1,1,69,Clear_not_profit_side,no_enforcement2,0,0,-,left,16,9,1000,1.45,right,right,1,2,1,0.83,6,13,141,277,0.277,1.7269999999999999,27-05-2020,17:26:49
56100d727ffc8a0005811338,43,female,1,1,70,Clear_not_profit_side,no_enforcement2,0,0,-,left,16,9,1000,1.45,right,right,1,2,1,0.18,6,13,141,277,0.277,1.7269999999999999,27-05-2020,17:26:49
56100d727ffc8a0005811338,43,female,1,1,71,Ambigous_left,no_enforcement2,0,0,-,left,11,14,1000,1.45,left,left,2,1,1,0.23,6,13,141,277,0.277,1.7269999999999999,27-05-2020,17:26:49
56100d727ffc8a0005811338,43,female,1,1,72,Ambigous_right,no_enforcement2,0,0,-,left,14,11,1000,1.45,right,right,1,2,1,0.203,6,13,141,277,0.277,1.7269999999999999,27-05-2020,17:26:49
56100d727ffc8a0005811338,43,female,1,1,73,Ambigous_left,no_enforcement2,0,0,-,left,11,14,1000,1.45,left,left,2,1,1,0.268,6,13,141,277,0.277,1.7269999999999999,27-05-2020,17:26:49
56100d727ffc8a0005811338,43,female,1,1,74,Ambigous_left,no_enforcement2,0,0,-,left,11,14,1000,1.45,left,left,2,1,1,0.164,6,13,141,277,0.277,1.7269999999999999,27-05-2020,17:26:49
56100d727ffc8a0005811338,43,female,1,1,75,Ambigous_right,no_enforcement2,0,0,-,left,14,11,1000,1.45,right,right,1,2,1,0.209,6,13,141,277,0.277,1.7269999999999999,27-05-2020,17:26:49
56100d727ffc8a0005811338,43,female,1,1,76,Ambigous_right,no_enforcement2,0,0,-,left,14,11,1000,1.45,right,right,1,2,1,0.782,6,13,141,277,0.277,1.7269999999999999,27-05-2020,17:26:49
56100d727ffc8a0005811338,43,female,1,1,77,Clear_not_profit_side,no_enforcement2,0,0,-,left,16,9,1000,1.45,right,right,1,2,1,0.627,6,13,141,277,0.277,1.7269999999999999,27-05-2020,17:26:49
56100d727ffc8a0005811338,43,female,1,1,78,Clear_not_profit_side,no_enforcement2,0,0,-,left,16,9,1000,1.45,right,right,1,2,1,0.669,6,13,141,277,0.277,1.7269999999999999,27-05-2020,17:26:49
56100d727ffc8a0005811338,43,female,1,1,79,Ambigous_left,no_enforcement2,0,0,-,left,11,14,1000,1.45,left,left,2,1,1,0.221,6,13,141,277,0.277,1.7269999999999999,27-05-2020,17:26:49
56100d727ffc8a0005811338,43,female,1,1,80,Ambigous_left,no_enforcement2,0,0,-,left,11,14,1000,1.45,left,right,1,2,0,0.209,6,13,141,277,0.277,1.7269999999999999,27-05-2020,17:26:49
56100d727ffc8a0005811338,43,female,1,1,81,Ambigous_right,no_enforcement2,0,0,-,left,14,11,1000,1.45,right,right,1,2,1,0.724,6,13,141,277,0.277,1.7269999999999999,27-05-2020,17:26:49
56100d727ffc8a0005811338,43,female,1,1,82,Ambigous_right,no_enforcement2,0,0,-,left,14,11,1000,1.45,right,left,2,1,0,0.596,6,13,141,277,0.277,1.7269999999999999,27-05-2020,17:26:49
56100d727ffc8a0005811338,43,female,1,1,83,Clear_not_profit_side,no_enforcement2,0,0,-,left,16,9,1000,1.45,right,right,1,2,1,0.148,6,13,141,277,0.277,1.7269999999999999,27-05-2020,17:26:49
56100d727ffc8a0005811338,43,female,1,1,84,Ambigous_right,no_enforcement2,0,0,-,left,14,11,1000,1.45,right,right,1,2,1,0.436,6,13,141,277,0.277,1.7269999999999999,27-05-2020,17:26:49
56100d727ffc8a0005811338,43,female,1,1,85,Ambigous_left,no_enforcement2,0,0,-,left,11,14,1000,1.45,left,left,2,1,1,0.418,6,13,141,277,0.277,1.7269999999999999,27-05-2020,17:26:49
56100d727ffc8a0005811338,43,female,1,1,86,Clear_profit_side,no_enforcement2,0,0,-,left,9,16,1000,1.45,left,left,2,1,1,0.242,6,13,141,277,0.277,1.7269999999999999,27-05-2020,17:26:49
56100d727ffc8a0005811338,43,female,1,1,87,Clear_not_profit_side,no_enforcement2,0,0,-,left,16,9,1000,1.45,right,right,1,2,1,0.21,6,13,141,277,0.277,1.7269999999999999,27-05-2020,17:26:49
56100d727ffc8a0005811338,43,female,1,1,88,Ambigous_left,no_enforcement2,0,0,-,left,11,14,1000,1.45,left,left,2,1,1,0.25,6,13,141,277,0.277,1.7269999999999999,27-05-2020,17:26:49
56100d727ffc8a0005811338,43,female,1,1,89,Clear_profit_side,no_enforcement2,0,0,-,left,9,16,1000,1.45,left,left,2,1,1,0.165,6,13,141,277,0.277,1.7269999999999999,27-05-2020,17:26:49
56100d727ffc8a0005811338,43,female,1,1,90,Ambigous_left,no_enforcement2,0,0,-,left,11,14,1000,1.45,left,left,2,1,1,0.16,6,13,141,277,0.277,1.7269999999999999,27-05-2020,17:26:49
56100d727ffc8a0005811338,43,female,1,1,91,Clear_not_profit_side,no_enforcement2,0,0,-,left,16,9,1000,1.45,right,right,1,2,1,0.167,6,13,141,277,0.277,1.7269999999999999,27-05-2020,17:26:49
56100d727ffc8a0005811338,43,female,1,1,92,Ambigous_left,no_enforcement2,0,0,-,left,11,14,1000,1.45,left,left,2,1,1,0.223,6,13,141,277,0.277,1.7269999999999999,27-05-2020,17:26:49
56100d727ffc8a0005811338,43,female,1,1,93,Clear_not_profit_side,no_enforcement2,0,0,-,left,16,9,1000,1.45,right,right,1,2,1,0.124,6,13,141,277,0.277,1.7269999999999999,27-05-2020,17:26:49
56100d727ffc8a0005811338,43,female,1,1,94,Clear_profit_side,no_enforcement2,0,0,-,left,9,16,1000,1.45,left,left,2,1,1,0.229,6,13,141,277,0.277,1.7269999999999999,27-05-2020,17:26:49
56100d727ffc8a0005811338,43,female,1,1,95,Clear_profit_side,no_enforcement2,0,0,-,left,9,16,1000,1.45,left,left,2,1,1,0.238,6,13,141,277,0.277,1.7269999999999999,27-05-2020,17:26:49
56100d727ffc8a0005811338,43,female,1,1,96,Ambigous_right,no_enforcement2,0,0,-,left,14,11,1000,1.45,right,right,1,2,1,0.123,6,13,141,277,0.277,1.7269999999999999,27-05-2020,17:26:49
56100d727ffc8a0005811338,43,female,1,1,97,Clear_profit_side,no_enforcement2,0,0,-,left,9,16,1000,1.45,left,left,2,1,1,0.226,6,13,141,277,0.277,1.7269999999999999,27-05-2020,17:26:49
56100d727ffc8a0005811338,43,female,1,1,98,Ambigous_right,no_enforcement2,0,0,-,left,14,11,1000,1.45,right,right,1,2,1,0.156,6,13,141,277,0.277,1.7269999999999999,27-05-2020,17:26:49
56100d727ffc8a0005811338,43,female,1,1,99,Clear_not_profit_side,no_enforcement2,0,0,-,left,16,9,1000,1.45,right,right,1,2,1,0.153,6,13,141,277,0.277,1.7269999999999999,27-05-2020,17:26:49
56100d727ffc8a0005811338,43,female,1,1,100,Ambigous_left,no_enforcement2,0,0,-,left,11,14,1000,1.45,left,left,2,1,1,0.222,6,13,141,277,0.277,1.7269999999999999,27-05-2020,17:26:49
56100d727ffc8a0005811338,43,female,1,2,1,Ambigous_left,no_enforcement2,0,0,-,left,11,14,1000,1.45,left,left,2,1,1,0.252,7,13,136,277,0.277,1.7269999999999999,27-05-2020,17:26:49
56100d727ffc8a0005811338,43,female,1,2,2,Clear_profit_side,no_enforcement2,0,0,-,left,9,16,1000,1.45,left,left,2,1,1,0.224,7,13,136,277,0.277,1.7269999999999999,27-05-2020,17:26:49
56100d727ffc8a0005811338,43,female,1,2,3,Clear_not_profit_side,no_enforcement2,0,0,-,left,16,9,1000,1.45,right,right,1,2,1,0.157,7,13,136,277,0.277,1.7269999999999999,27-05-2020,17:26:49
56100d727ffc8a0005811338,43,female,1,2,4,Clear_not_profit_side,no_enforcement2,0,0,-,left,16,9,1000,1.45,right,right,1,2,1,0.188,7,13,136,277,0.277,1.7269999999999999,27-05-2020,17:26:49
56100d727ffc8a0005811338,43,female,1,2,5,Clear_profit_side,no_enforcement2,0,0,-,left,9,16,1000,1.45,left,left,2,1,1,0.235,7,13,136,277,0.277,1.7269999999999999,27-05-2020,17:26:49
56100d727ffc8a0005811338,43,female,1,2,6,Ambigous_right,no_enforcement2,0,0,-,left,14,11,1000,1.45,right,right,1,2,1,0.112,7,13,136,277,0.277,1.7269999999999999,27-05-2020,17:26:49
56100d727ffc8a0005811338,43,female,1,2,7,Clear_not_profit_side,no_enforcement2,0,0,-,left,16,9,1000,1.45,right,right,1,2,1,0.173,7,13,136,277,0.277,1.7269999999999999,27-05-2020,17:26:49
56100d727ffc8a0005811338,43,female,1,2,8,Clear_not_profit_side,no_enforcement2,0,0,-,left,16,9,1000,1.45,right,right,1,2,1,0.162,7,13,136,277,0.277,1.7269999999999999,27-05-2020,17:26:49
56100d727ffc8a0005811338,43,female,1,2,9,Clear_profit_side,no_enforcement2,0,0,-,left,9,16,1000,1.45,left,left,2,1,1,0.207,7,13,136,277,0.277,1.7269999999999999,27-05-2020,17:26:49
56100d727ffc8a0005811338,43,female,1,2,10,Ambigous_left,no_enforcement2,0,0,-,left,11,14,1000,1.45,left,left,2,1,1,0.16,7,13,136,277,0.277,1.7269999999999999,27-05-2020,17:26:49
56100d727ffc8a0005811338,43,female,1,2,11,Ambigous_right,no_enforcement2,0,0,-,left,14,11,1000,1.45,right,right,1,2,1,0.13,7,13,136,277,0.277,1.7269999999999999,27-05-2020,17:26:49
56100d727ffc8a0005811338,43,female,1,2,12,Ambigous_left,no_enforcement2,0,0,-,left,11,14,1000,1.45,left,left,2,1,1,0.238,7,13,136,277,0.277,1.7269999999999999,27-05-2020,17:26:49
56100d727ffc8a0005811338,43,female,1,2,13,Ambigous_right,no_enforcement2,0,0,-,left,14,11,1000,1.45,right,right,1,2,1,0.31,7,13,136,277,0.277,1.7269999999999999,27-05-2020,17:26:49
56100d727ffc8a0005811338,43,female,1,2,14,Ambigous_right,no_enforcement2,0,0,-,left,14,11,1000,1.45,right,right,1,2,1,0.175,7,13,136,277,0.277,1.7269999999999999,27-05-2020,17:26:49
56100d727ffc8a0005811338,43,female,1,2,15,Ambigous_left,no_enforcement2,0,0,-,left,11,14,1000,1.45,left,left,2,1,1,0.224,7,13,136,277,0.277,1.7269999999999999,27-05-2020,17:26:49
56100d727ffc8a0005811338,43,female,1,2,16,Clear_not_profit_side,no_enforcement2,0,0,-,left,16,9,1000,1.45,right,right,1,2,1,0.145,7,13,136,277,0.277,1.7269999999999999,27-05-2020,17:26:49
56100d727ffc8a0005811338,43,female,1,2,17,Clear_not_profit_side,no_enforcement2,0,0,-,left,16,9,1000,1.45,right,right,1,2,1,0.115,7,13,136,277,0.277,1.7269999999999999,27-05-2020,17:26:49
56100d727ffc8a0005811338,43,female,1,2,18,Clear_not_profit_side,no_enforcement2,0,0,-,left,16,9,1000,1.45,right,right,1,2,1,0.137,7,13,136,277,0.277,1.7269999999999999,27-05-2020,17:26:49
56100d727ffc8a0005811338,43,female,1,2,19,Clear_not_profit_side,no_enforcement2,0,0,-,left,16,9,1000,1.45,right,right,1,2,1,0.28,7,13,136,277,0.277,1.7269999999999999,27-05-2020,17:26:49
56100d727ffc8a0005811338,43,female,1,2,20,Ambigous_left,no_enforcement2,0,0,-,left,11,14,1000,1.45,left,left,2,1,1,0.289,7,13,136,277,0.277,1.7269999999999999,27-05-2020,17:26:49
56100d727ffc8a0005811338,43,female,1,2,21,Clear_profit_side,no_enforcement2,0,0,-,left,9,16,1000,1.45,left,right,1,2,0,0.219,7,13,136,277,0.277,1.7269999999999999,27-05-2020,17:26:49
56100d727ffc8a0005811338,43,female,1,2,22,Clear_not_profit_side,no_enforcement2,0,0,-,left,16,9,1000,1.45,right,right,1,2,1,0.13,7,13,136,277,0.277,1.7269999999999999,27-05-2020,17:26:49
56100d727ffc8a0005811338,43,female,1,2,23,Ambigous_right,no_enforcement2,0,0,-,left,14,11,1000,1.45,right,right,1,2,1,0.19,7,13,136,277,0.277,1.7269999999999999,27-05-2020,17:26:49
56100d727ffc8a0005811338,43,female,1,2,24,Clear_not_profit_side,no_enforcement2,0,0,-,left,16,9,1000,1.45,right,right,1,2,1,0.165,7,13,136,277,0.277,1.7269999999999999,27-05-2020,17:26:49
56100d727ffc8a0005811338,43,female,1,2,25,Ambigous_left,no_enforcement2,0,0,-,left,11,14,1000,1.45,left,left,2,1,1,0.265,7,13,136,277,0.277,1.7269999999999999,27-05-2020,17:26:49
56100d727ffc8a0005811338,43,female,1,2,26,Clear_not_profit_side,no_enforcement2,0,0,-,left,16,9,1000,1.45,right,right,1,2,1,0.247,7,13,136,277,0.277,1.7269999999999999,27-05-2020,17:26:49
56100d727ffc8a0005811338,43,female,1,2,27,Ambigous_left,no_enforcement2,0,0,-,left,11,14,1000,1.45,left,left,2,1,1,0.219,7,13,136,277,0.277,1.7269999999999999,27-05-2020,17:26:49
56100d727ffc8a0005811338,43,female,1,2,28,Ambigous_right,no_enforcement2,0,0,-,left,14,11,1000,1.45,right,right,1,2,1,0.124,7,13,136,277,0.277,1.7269999999999999,27-05-2020,17:26:49
56100d727ffc8a0005811338,43,female,1,2,29,Ambigous_right,no_enforcement2,0,0,-,left,14,11,1000,1.45,right,right,1,2,1,0.224,7,13,136,277,0.277,1.7269999999999999,27-05-2020,17:26:49
56100d727ffc8a0005811338,43,female,1,2,30,Clear_profit_side,no_enforcement2,0,0,-,left,9,16,1000,1.45,left,left,2,1,1,0.236,7,13,136,277,0.277,1.7269999999999999,27-05-2020,17:26:49
56100d727ffc8a0005811338,43,female,1,2,31,Clear_profit_side,no_enforcement2,0,0,-,left,9,16,1000,1.45,left,left,2,1,1,0.241,7,13,136,277,0.277,1.7269999999999999,27-05-2020,17:26:49
56100d727ffc8a0005811338,43,female,1,2,32,Ambigous_right,no_enforcement2,0,0,-,left,14,11,1000,1.45,right,right,1,2,1,0.166,7,13,136,277,0.277,1.7269999999999999,27-05-2020,17:26:49
56100d727ffc8a0005811338,43,female,1,2,33,Clear_profit_side,no_enforcement2,0,0,-,left,9,16,1000,1.45,left,left,2,1,1,0.216,7,13,136,277,0.277,1.7269999999999999,27-05-2020,17:26:49
56100d727ffc8a0005811338,43,female,1,2,34,Ambigous_left,no_enforcement2,0,0,-,left,11,14,1000,1.45,left,left,2,1,1,0.21,7,13,136,277,0.277,1.7269999999999999,27-05-2020,17:26:49
56100d727ffc8a0005811338,43,female,1,2,35,Clear_profit_side,no_enforcement2,0,0,-,left,9,16,1000,1.45,left,left,2,1,1,0.178,7,13,136,277,0.277,1.7269999999999999,27-05-2020,17:26:49
56100d727ffc8a0005811338,43,female,1,2,36,Clear_not_profit_side,no_enforcement2,0,0,-,left,16,9,1000,1.45,right,right,1,2,1,0.203,7,13,136,277,0.277,1.7269999999999999,27-05-2020,17:26:49
56100d727ffc8a0005811338,43,female,1,2,37,Ambigous_right,no_enforcement2,0,0,-,left,14,11,1000,1.45,right,right,1,2,1,0.168,7,13,136,277,0.277,1.7269999999999999,27-05-2020,17:26:49
56100d727ffc8a0005811338,43,female,1,2,38,Clear_not_profit_side,no_enforcement2,0,0,-,left,16,9,1000,1.45,right,right,1,2,1,0.103,7,13,136,277,0.277,1.7269999999999999,27-05-2020,17:26:49
56100d727ffc8a0005811338,43,female,1,2,39,Clear_not_profit_side,no_enforcement2,0,0,-,left,16,9,1000,1.45,right,right,1,2,1,0.111,7,13,136,277,0.277,1.7269999999999999,27-05-2020,17:26:49
56100d727ffc8a0005811338,43,female,1,2,40,Clear_not_profit_side,no_enforcement2,0,0,-,left,16,9,1000,1.45,right,right,1,2,1,0.132,7,13,136,277,0.277,1.7269999999999999,27-05-2020,17:26:49
56100d727ffc8a0005811338,43,female,1,2,41,Clear_profit_side,no_enforcement2,0,0,-,left,9,16,1000,1.45,left,left,2,1,1,0.234,7,13,136,277,0.277,1.7269999999999999,27-05-2020,17:26:49
56100d727ffc8a0005811338,43,female,1,2,42,Clear_profit_side,no_enforcement2,0,0,-,left,9,16,1000,1.45,left,left,2,1,1,0.227,7,13,136,277,0.277,1.7269999999999999,27-05-2020,17:26:49
56100d727ffc8a0005811338,43,female,1,2,43,Clear_not_profit_side,no_enforcement2,0,0,-,left,16,9,1000,1.45,right,right,1,2,1,0.215,7,13,136,277,0.277,1.7269999999999999,27-05-2020,17:26:49
56100d727ffc8a0005811338,43,female,1,2,44,Ambigous_right,no_enforcement2,0,0,-,left,14,11,1000,1.45,right,left,2,1,0,0.211,7,13,136,277,0.277,1.7269999999999999,27-05-2020,17:26:49
56100d727ffc8a0005811338,43,female,1,2,45,Ambigous_right,no_enforcement2,0,0,-,left,14,11,1000,1.45,right,right,1,2,1,0.15,7,13,136,277,0.277,1.7269999999999999,27-05-2020,17:26:49
56100d727ffc8a0005811338,43,female,1,2,46,Ambigous_right,no_enforcement2,0,0,-,left,14,11,1000,1.45,right,right,1,2,1,0.205,7,13,136,277,0.277,1.7269999999999999,27-05-2020,17:26:49
56100d727ffc8a0005811338,43,female,1,2,47,Ambigous_left,no_enforcement2,0,0,-,left,11,14,1000,1.45,left,left,2,1,1,0.196,7,13,136,277,0.277,1.7269999999999999,27-05-2020,17:26:49
56100d727ffc8a0005811338,43,female,1,2,48,Ambigous_left,no_enforcement2,0,0,-,left,11,14,1000,1.45,left,right,1,2,0,0.366,7,13,136,277,0.277,1.7269999999999999,27-05-2020,17:26:49
56100d727ffc8a0005811338,43,female,1,2,49,Ambigous_left,no_enforcement2,0,0,-,left,11,14,1000,1.45,left,left,2,1,1,0.191,7,13,136,277,0.277,1.7269999999999999,27-05-2020,17:26:49
56100d727ffc8a0005811338,43,female,1,2,50,Ambigous_right,no_enforcement2,0,0,-,left,14,11,1000,1.45,right,right,1,2,1,0.174,7,13,136,277,0.277,1.7269999999999999,27-05-2020,17:26:49
56100d727ffc8a0005811338,43,female,1,2,51,Ambigous_right,no_enforcement2,0,0,-,left,14,11,1000,1.45,right,right,1,2,1,0.318,7,13,136,277,0.277,1.7269999999999999,27-05-2020,17:26:49
56100d727ffc8a0005811338,43,female,1,2,52,Ambigous_left,no_enforcement2,0,0,-,left,11,14,1000,1.45,left,left,2,1,1,0.206,7,13,136,277,0.277,1.7269999999999999,27-05-2020,17:26:49
56100d727ffc8a0005811338,43,female,1,2,53,Ambigous_left,no_enforcement2,0,0,-,left,11,14,1000,1.45,left,left,2,1,1,0.182,7,13,136,277,0.277,1.7269999999999999,27-05-2020,17:26:49
56100d727ffc8a0005811338,43,female,1,2,54,Clear_not_profit_side,no_enforcement2,0,0,-,left,16,9,1000,1.45,right,right,1,2,1,0.319,7,13,136,277,0.277,1.7269999999999999,27-05-2020,17:26:49
56100d727ffc8a0005811338,43,female,1,2,55,Clear_not_profit_side,no_enforcement2,0,0,-,left,16,9,1000,1.45,right,right,1,2,1,0.113,7,13,136,277,0.277,1.7269999999999999,27-05-2020,17:26:49
56100d727ffc8a0005811338,43,female,1,2,56,Clear_not_profit_side,no_enforcement2,0,0,-,left,16,9,1000,1.45,right,right,1,2,1,0.111,7,13,136,277,0.277,1.7269999999999999,27-05-2020,17:26:49
56100d727ffc8a0005811338,43,female,1,2,57,Clear_profit_side,no_enforcement2,0,0,-,left,9,16,1000,1.45,left,left,2,1,1,0.207,7,13,136,277,0.277,1.7269999999999999,27-05-2020,17:26:49
56100d727ffc8a0005811338,43,female,1,2,58,Clear_not_profit_side,no_enforcement2,0,0,-,left,16,9,1000,1.45,right,right,1,2,1,0.199,7,13,136,277,0.277,1.7269999999999999,27-05-2020,17:26:49
56100d727ffc8a0005811338,43,female,1,2,59,Ambigous_left,no_enforcement2,0,0,-,left,11,14,1000,1.45,left,left,2,1,1,0.191,7,13,136,277,0.277,1.7269999999999999,27-05-2020,17:26:49
56100d727ffc8a0005811338,43,female,1,2,60,Ambigous_right,no_enforcement2,0,0,-,left,14,11,1000,1.45,right,right,1,2,1,0.17,7,13,136,277,0.277,1.7269999999999999,27-05-2020,17:26:49
56100d727ffc8a0005811338,43,female,1,2,61,Clear_not_profit_side,no_enforcement2,0,0,-,left,16,9,1000,1.45,right,right,1,2,1,0.308,7,13,136,277,0.277,1.7269999999999999,27-05-2020,17:26:49
56100d727ffc8a0005811338,43,female,1,2,62,Clear_not_profit_side,no_enforcement2,0,0,-,left,16,9,1000,1.45,right,right,1,2,1,0.129,7,13,136,277,0.277,1.7269999999999999,27-05-2020,17:26:49
56100d727ffc8a0005811338,43,female,1,2,63,Clear_not_profit_side,no_enforcement2,0,0,-,left,16,9,1000,1.45,right,right,1,2,1,0.112,7,13,136,277,0.277,1.7269999999999999,27-05-2020,17:26:49
56100d727ffc8a0005811338,43,female,1,2,64,Clear_not_profit_side,no_enforcement2,0,0,-,left,16,9,1000,1.45,right,right,1,2,1,0.109,7,13,136,277,0.277,1.7269999999999999,27-05-2020,17:26:49
56100d727ffc8a0005811338,43,female,1,2,65,Ambigous_right,no_enforcement2,0,0,-,left,14,11,1000,1.45,right,right,1,2,1,0.248,7,13,136,277,0.277,1.7269999999999999,27-05-2020,17:26:49
56100d727ffc8a0005811338,43,female,1,2,66,Clear_not_profit_side,no_enforcement2,0,0,-,left,16,9,1000,1.45,right,right,1,2,1,0.11,7,13,136,277,0.277,1.7269999999999999,27-05-2020,17:26:49
56100d727ffc8a0005811338,43,female,1,2,67,Clear_not_profit_side,no_enforcement2,0,0,-,left,16,9,1000,1.45,right,right,1,2,1,0.095,7,13,136,277,0.277,1.7269999999999999,27-05-2020,17:26:49
56100d727ffc8a0005811338,43,female,1,2,68,Ambigous_left,no_enforcement2,0,0,-,left,11,14,1000,1.45,left,right,1,2,0,0.199,7,13,136,277,0.277,1.7269999999999999,27-05-2020,17:26:49
56100d727ffc8a0005811338,43,female,1,2,69,Ambigous_left,no_enforcement2,0,0,-,left,11,14,1000,1.45,left,left,2,1,1,0.205,7,13,136,277,0.277,1.7269999999999999,27-05-2020,17:26:49
56100d727ffc8a0005811338,43,female,1,2,70,Ambigous_right,no_enforcement2,0,0,-,left,14,11,1000,1.45,right,right,1,2,1,0.208,7,13,136,277,0.277,1.7269999999999999,27-05-2020,17:26:49
56100d727ffc8a0005811338,43,female,1,2,71,Ambigous_left,no_enforcement2,0,0,-,left,11,14,1000,1.45,left,left,2,1,1,0.205,7,13,136,277,0.277,1.7269999999999999,27-05-2020,17:26:49
56100d727ffc8a0005811338,43,female,1,2,72,Clear_not_profit_side,no_enforcement2,0,0,-,left,16,9,1000,1.45,right,right,1,2,1,0.283,7,13,136,277,0.277,1.7269999999999999,27-05-2020,17:26:49
56100d727ffc8a0005811338,43,female,1,2,73,Ambigous_right,no_enforcement2,0,0,-,left,14,11,1000,1.45,right,right,1,2,1,0.185,7,13,136,277,0.277,1.7269999999999999,27-05-2020,17:26:49
56100d727ffc8a0005811338,43,female,1,2,74,Ambigous_left,no_enforcement2,0,0,-,left,11,14,1000,1.45,left,left,2,1,1,0.209,7,13,136,277,0.277,1.7269999999999999,27-05-2020,17:26:49
56100d727ffc8a0005811338,43,female,1,2,75,Ambigous_right,no_enforcement2,0,0,-,left,14,11,1000,1.45,right,right,1,2,1,0.132,7,13,136,277,0.277,1.7269999999999999,27-05-2020,17:26:49
56100d727ffc8a0005811338,43,female,1,2,76,Clear_not_profit_side,no_enforcement2,0,0,-,left,16,9,1000,1.45,right,right,1,2,1,0.112,7,13,136,277,0.277,1.7269999999999999,27-05-2020,17:26:49
56100d727ffc8a0005811338,43,female,1,2,77,Ambigous_left,no_enforcement2,0,0,-,left,11,14,1000,1.45,left,right,1,2,0,0.14,7,13,136,277,0.277,1.7269999999999999,27-05-2020,17:26:49
56100d727ffc8a0005811338,43,female,1,2,78,Clear_profit_side,no_enforcement2,0,0,-,left,9,16,1000,1.45,left,left,2,1,1,0.199,7,13,136,277,0.277,1.7269999999999999,27-05-2020,17:26:49
56100d727ffc8a0005811338,43,female,1,2,79,Clear_not_profit_side,no_enforcement2,0,0,-,left,16,9,1000,1.45,right,right,1,2,1,0.169,7,13,136,277,0.277,1.7269999999999999,27-05-2020,17:26:49
56100d727ffc8a0005811338,43,female,1,2,80,Clear_not_profit_side,no_enforcement2,0,0,-,left,16,9,1000,1.45,right,right,1,2,1,0.348,7,13,136,277,0.277,1.7269999999999999,27-05-2020,17:26:49
56100d727ffc8a0005811338,43,female,1,2,81,Clear_not_profit_side,no_enforcement2,0,0,-,left,16,9,1000,1.45,right,right,1,2,1,0.314,7,13,136,277,0.277,1.7269999999999999,27-05-2020,17:26:49
56100d727ffc8a0005811338,43,female,1,2,82,Ambigous_right,no_enforcement2,0,0,-,left,14,11,1000,1.45,right,right,1,2,1,0.955,7,13,136,277,0.277,1.7269999999999999,27-05-2020,17:26:49
56100d727ffc8a0005811338,43,female,1,2,83,Clear_not_profit_side,no_enforcement2,0,0,-,left,16,9,1000,1.45,right,right,1,2,1,0.496,7,13,136,277,0.277,1.7269999999999999,27-05-2020,17:26:49
56100d727ffc8a0005811338,43,female,1,2,84,Ambigous_left,no_enforcement2,0,0,-,left,11,14,1000,1.45,left,left,2,1,1,0.211,7,13,136,277,0.277,1.7269999999999999,27-05-2020,17:26:49
56100d727ffc8a0005811338,43,female,1,2,85,Ambigous_left,no_enforcement2,0,0,-,left,11,14,1000,1.45,left,left,2,1,1,0.219,7,13,136,277,0.277,1.7269999999999999,27-05-2020,17:26:49
56100d727ffc8a0005811338,43,female,1,2,86,Ambigous_right,no_enforcement2,0,0,-,left,14,11,1000,1.45,right,right,1,2,1,0.143,7,13,136,277,0.277,1.7269999999999999,27-05-2020,17:26:49
56100d727ffc8a0005811338,43,female,1,2,87,Ambigous_right,no_enforcement2,0,0,-,left,14,11,1000,1.45,right,right,1,2,1,1.214,7,13,136,277,0.277,1.7269999999999999,27-05-2020,17:26:49
56100d727ffc8a0005811338,43,female,1,2,88,Clear_profit_side,no_enforcement2,0,0,-,left,9,16,1000,1.45,left,left,2,1,1,0.223,7,13,136,277,0.277,1.7269999999999999,27-05-2020,17:26:49
56100d727ffc8a0005811338,43,female,1,2,89,Ambigous_left,no_enforcement2,0,0,-,left,11,14,1000,1.45,left,left,2,1,1,0.226,7,13,136,277,0.277,1.7269999999999999,27-05-2020,17:26:49
56100d727ffc8a0005811338,43,female,1,2,90,Clear_profit_side,no_enforcement2,0,0,-,left,9,16,1000,1.45,left,left,2,1,1,0.228,7,13,136,277,0.277,1.7269999999999999,27-05-2020,17:26:49
56100d727ffc8a0005811338,43,female,1,2,91,Ambigous_right,no_enforcement2,0,0,-,left,14,11,1000,1.45,right,right,1,2,1,0.3,7,13,136,277,0.277,1.7269999999999999,27-05-2020,17:26:49
56100d727ffc8a0005811338,43,female,1,2,92,Ambigous_left,no_enforcement2,0,0,-,left,11,14,1000,1.45,left,right,1,2,0,0.379,7,13,136,277,0.277,1.7269999999999999,27-05-2020,17:26:49
56100d727ffc8a0005811338,43,female,1,2,93,Ambigous_right,no_enforcement2,0,0,-,left,14,11,1000,1.45,right,right,1,2,1,0.109,7,13,136,277,0.277,1.7269999999999999,27-05-2020,17:26:49
56100d727ffc8a0005811338,43,female,1,2,94,Clear_profit_side,no_enforcement2,0,0,-,left,9,16,1000,1.45,left,left,2,1,1,0.213,7,13,136,277,0.277,1.7269999999999999,27-05-2020,17:26:49
56100d727ffc8a0005811338,43,female,1,2,95,Ambigous_right,no_enforcement2,0,0,-,left,14,11,1000,1.45,right,right,1,2,1,0.193,7,13,136,277,0.277,1.7269999999999999,27-05-2020,17:26:49
56100d727ffc8a0005811338,43,female,1,2,96,Ambigous_left,no_enforcement2,0,0,-,left,11,14,1000,1.45,left,left,2,1,1,0.202,7,13,136,277,0.277,1.7269999999999999,27-05-2020,17:26:49
56100d727ffc8a0005811338,43,female,1,2,97,Clear_not_profit_side,no_enforcement2,0,0,-,left,16,9,1000,1.45,right,right,1,2,1,0.181,7,13,136,277,0.277,1.7269999999999999,27-05-2020,17:26:49
56100d727ffc8a0005811338,43,female,1,2,98,Clear_not_profit_side,no_enforcement2,0,0,-,left,16,9,1000,1.45,right,right,1,2,1,0.407,7,13,136,277,0.277,1.7269999999999999,27-05-2020,17:26:49
56100d727ffc8a0005811338,43,female,1,2,99,Ambigous_left,no_enforcement2,0,0,-,left,11,14,1000,1.45,left,right,1,2,0,0.221,7,13,136,277,0.277,1.7269999999999999,27-05-2020,17:26:49
56100d727ffc8a0005811338,43,female,1,2,100,Clear_profit_side,no_enforcement2,0,0,-,left,9,16,1000,1.45,left,left,2,1,1,0.282,7,13,136,277,0.277,1.7269999999999999,27-05-2020,17:26:49
578f9f52eeaf6d00018d4f20,30,male,1,1,1,Clear_not_profit_side,no_enforcement2,0,0,-,left,16,9,1000,1.45,right,left,2,1,0,0.234,59,118,200,398,0.398,1.8479999999999999,27-05-2020,18:26:20
578f9f52eeaf6d00018d4f20,30,male,1,1,2,Clear_profit_side,no_enforcement2,0,0,-,left,9,16,1000,1.45,left,left,2,1,1,0.113,59,118,200,398,0.398,1.8479999999999999,27-05-2020,18:26:20
578f9f52eeaf6d00018d4f20,30,male,1,1,3,Clear_not_profit_side,no_enforcement2,0,0,-,left,16,9,1000,1.45,right,left,2,1,0,0.082,59,118,200,398,0.398,1.8479999999999999,27-05-2020,18:26:20
578f9f52eeaf6d00018d4f20,30,male,1,1,4,Ambigous_left,no_enforcement2,0,0,-,left,11,14,1000,1.45,left,left,2,1,1,0.019,59,118,200,398,0.398,1.8479999999999999,27-05-2020,18:26:20
578f9f52eeaf6d00018d4f20,30,male,1,1,5,Ambigous_right,no_enforcement2,0,0,-,left,14,11,1000,1.45,right,left,2,1,0,0.097,59,118,200,398,0.398,1.8479999999999999,27-05-2020,18:26:20
578f9f52eeaf6d00018d4f20,30,male,1,1,6,Ambigous_left,no_enforcement2,0,0,-,left,11,14,1000,1.45,left,left,2,1,1,0.085,59,118,200,398,0.398,1.8479999999999999,27-05-2020,18:26:20
578f9f52eeaf6d00018d4f20,30,male,1,1,7,Ambigous_right,no_enforcement2,0,0,-,left,14,11,1000,1.45,right,left,2,1,0,0.095,59,118,200,398,0.398,1.8479999999999999,27-05-2020,18:26:20
578f9f52eeaf6d00018d4f20,30,male,1,1,8,Clear_not_profit_side,no_enforcement2,0,0,-,left,16,9,1000,1.45,right,left,2,1,0,0.133,59,118,200,398,0.398,1.8479999999999999,27-05-2020,18:26:20
578f9f52eeaf6d00018d4f20,30,male,1,1,9,Clear_not_profit_side,no_enforcement2,0,0,-,left,16,9,1000,1.45,right,left,2,1,0,0.035,59,118,200,398,0.398,1.8479999999999999,27-05-2020,18:26:20
578f9f52eeaf6d00018d4f20,30,male,1,1,10,Clear_not_profit_side,no_enforcement2,0,0,-,left,16,9,1000,1.45,right,left,2,1,0,0.13,59,118,200,398,0.398,1.8479999999999999,27-05-2020,18:26:20
578f9f52eeaf6d00018d4f20,30,male,1,1,11,Clear_not_profit_side,no_enforcement2,0,0,-,left,16,9,1000,1.45,right,left,2,1,0,0.087,59,118,200,398,0.398,1.8479999999999999,27-05-2020,18:26:20
578f9f52eeaf6d00018d4f20,30,male,1,1,12,Ambigous_left,no_enforcement2,0,0,-,left,11,14,1000,1.45,left,left,2,1,1,0.087,59,118,200,398,0.398,1.8479999999999999,27-05-2020,18:26:20
578f9f52eeaf6d00018d4f20,30,male,1,1,13,Clear_not_profit_side,no_enforcement2,0,0,-,left,16,9,1000,1.45,right,left,2,1,0,0.039,59,118,200,398,0.398,1.8479999999999999,27-05-2020,18:26:20
578f9f52eeaf6d00018d4f20,30,male,1,1,14,Ambigous_right,no_enforcement2,0,0,-,left,14,11,1000,1.45,right,left,2,1,0,0.069,59,118,200,398,0.398,1.8479999999999999,27-05-2020,18:26:20
578f9f52eeaf6d00018d4f20,30,male,1,1,15,Clear_profit_side,no_enforcement2,0,0,-,left,9,16,1000,1.45,left,left,2,1,1,3.504,59,118,200,398,0.398,1.8479999999999999,27-05-2020,18:26:20
578f9f52eeaf6d00018d4f20,30,male,1,1,16,Ambigous_right,no_enforcement2,0,0,-,left,14,11,1000,1.45,right,left,2,1,0,0.107,59,118,200,398,0.398,1.8479999999999999,27-05-2020,18:26:20
578f9f52eeaf6d00018d4f20,30,male,1,1,17,Clear_profit_side,no_enforcement2,0,0,-,left,9,16,1000,1.45,left,left,2,1,1,0.038,59,118,200,398,0.398,1.8479999999999999,27-05-2020,18:26:20
578f9f52eeaf6d00018d4f20,30,male,1,1,18,Clear_profit_side,no_enforcement2,0,0,-,left,9,16,1000,1.45,left,left,2,1,1,0.053,59,118,200,398,0.398,1.8479999999999999,27-05-2020,18:26:20
578f9f52eeaf6d00018d4f20,30,male,1,1,19,Clear_not_profit_side,no_enforcement2,0,0,-,left,16,9,1000,1.45,right,left,2,1,0,0.048,59,118,200,398,0.398,1.8479999999999999,27-05-2020,18:26:20
578f9f52eeaf6d00018d4f20,30,male,1,1,20,Ambigous_right,no_enforcement2,0,0,-,left,14,11,1000,1.45,right,left,2,1,0,0.022,59,118,200,398,0.398,1.8479999999999999,27-05-2020,18:26:20
578f9f52eeaf6d00018d4f20,30,male,1,1,21,Ambigous_right,no_enforcement2,0,0,-,left,14,11,1000,1.45,right,left,2,1,0,0.027,59,118,200,398,0.398,1.8479999999999999,27-05-2020,18:26:20
578f9f52eeaf6d00018d4f20,30,male,1,1,22,Ambigous_right,no_enforcement2,0,0,-,left,14,11,1000,1.45,right,left,2,1,0,0.05,59,118,200,398,0.398,1.8479999999999999,27-05-2020,18:26:20
578f9f52eeaf6d00018d4f20,30,male,1,1,23,Clear_not_profit_side,no_enforcement2,0,0,-,left,16,9,1000,1.45,right,left,2,1,0,0.036,59,118,200,398,0.398,1.8479999999999999,27-05-2020,18:26:20
578f9f52eeaf6d00018d4f20,30,male,1,1,24,Ambigous_left,no_enforcement2,0,0,-,left,11,14,1000,1.45,left,left,2,1,1,0.039,59,118,200,398,0.398,1.8479999999999999,27-05-2020,18:26:20
578f9f52eeaf6d00018d4f20,30,male,1,1,25,Clear_not_profit_side,no_enforcement2,0,0,-,left,16,9,1000,1.45,right,left,2,1,0,0.017,59,118,200,398,0.398,1.8479999999999999,27-05-2020,18:26:20
578f9f52eeaf6d00018d4f20,30,male,1,1,26,Ambigous_left,no_enforcement2,0,0,-,left,11,14,1000,1.45,left,left,2,1,1,0.04,59,118,200,398,0.398,1.8479999999999999,27-05-2020,18:26:20
578f9f52eeaf6d00018d4f20,30,male,1,1,27,Ambigous_right,no_enforcement2,0,0,-,left,14,11,1000,1.45,right,left,2,1,0,0.036,59,118,200,398,0.398,1.8479999999999999,27-05-2020,18:26:20
578f9f52eeaf6d00018d4f20,30,male,1,1,28,Ambigous_right,no_enforcement2,0,0,-,left,14,11,1000,1.45,right,left,2,1,0,0.022,59,118,200,398,0.398,1.8479999999999999,27-05-2020,18:26:20
578f9f52eeaf6d00018d4f20,30,male,1,1,29,Ambigous_right,no_enforcement2,0,0,-,left,14,11,1000,1.45,right,left,2,1,0,0.015,59,118,200,398,0.398,1.8479999999999999,27-05-2020,18:26:20
578f9f52eeaf6d00018d4f20,30,male,1,1,30,Ambigous_left,no_enforcement2,0,0,-,left,11,14,1000,1.45,left,left,2,1,1,0.041,59,118,200,398,0.398,1.8479999999999999,27-05-2020,18:26:20
578f9f52eeaf6d00018d4f20,30,male,1,1,31,Ambigous_left,no_enforcement2,0,0,-,left,11,14,1000,1.45,left,left,2,1,1,0.038,59,118,200,398,0.398,1.8479999999999999,27-05-2020,18:26:20
578f9f52eeaf6d00018d4f20,30,male,1,1,32,Ambigous_left,no_enforcement2,0,0,-,left,11,14,1000,1.45,left,left,2,1,1,0.023,59,118,200,398,0.398,1.8479999999999999,27-05-2020,18:26:20
578f9f52eeaf6d00018d4f20,30,male,1,1,33,Clear_not_profit_side,no_enforcement2,0,0,-,left,16,9,1000,1.45,right,left,2,1,0,0.018,59,118,200,398,0.398,1.8479999999999999,27-05-2020,18:26:20
578f9f52eeaf6d00018d4f20,30,male,1,1,34,Ambigous_right,no_enforcement2,0,0,-,left,14,11,1000,1.45,right,left,2,1,0,0.021,59,118,200,398,0.398,1.8479999999999999,27-05-2020,18:26:20
578f9f52eeaf6d00018d4f20,30,male,1,1,35,Clear_profit_side,no_enforcement2,0,0,-,left,9,16,1000,1.45,left,left,2,1,1,0.041,59,118,200,398,0.398,1.8479999999999999,27-05-2020,18:26:20
578f9f52eeaf6d00018d4f20,30,male,1,1,36,Clear_profit_side,no_enforcement2,0,0,-,left,9,16,1000,1.45,left,left,2,1,1,0.026,59,118,200,398,0.398,1.8479999999999999,27-05-2020,18:26:20
578f9f52eeaf6d00018d4f20,30,male,1,1,37,Ambigous_left,no_enforcement2,0,0,-,left,11,14,1000,1.45,left,left,2,1,1,0.038,59,118,200,398,0.398,1.8479999999999999,27-05-2020,18:26:20
578f9f52eeaf6d00018d4f20,30,male,1,1,38,Ambigous_left,no_enforcement2,0,0,-,left,11,14,1000,1.45,left,left,2,1,1,0.071,59,118,200,398,0.398,1.8479999999999999,27-05-2020,18:26:20
578f9f52eeaf6d00018d4f20,30,male,1,1,39,Ambigous_right,no_enforcement2,0,0,-,left,14,11,1000,1.45,right,left,2,1,0,0.017,59,118,200,398,0.398,1.8479999999999999,27-05-2020,18:26:20
578f9f52eeaf6d00018d4f20,30,male,1,1,40,Ambigous_left,no_enforcement2,0,0,-,left,11,14,1000,1.45,left,left,2,1,1,0.051,59,118,200,398,0.398,1.8479999999999999,27-05-2020,18:26:20
578f9f52eeaf6d00018d4f20,30,male,1,1,41,Clear_not_profit_side,no_enforcement2,0,0,-,left,16,9,1000,1.45,right,left,2,1,0,0.068,59,118,200,398,0.398,1.8479999999999999,27-05-2020,18:26:20
578f9f52eeaf6d00018d4f20,30,male,1,1,42,Clear_not_profit_side,no_enforcement2,0,0,-,left,16,9,1000,1.45,right,left,2,1,0,0.058,59,118,200,398,0.398,1.8479999999999999,27-05-2020,18:26:20
578f9f52eeaf6d00018d4f20,30,male,1,1,43,Ambigous_right,no_enforcement2,0,0,-,left,14,11,1000,1.45,right,left,2,1,0,0.012,59,118,200,398,0.398,1.8479999999999999,27-05-2020,18:26:20
578f9f52eeaf6d00018d4f20,30,male,1,1,44,Ambigous_right,no_enforcement2,0,0,-,left,14,11,1000,1.45,right,left,2,1,0,0.091,59,118,200,398,0.398,1.8479999999999999,27-05-2020,18:26:20
578f9f52eeaf6d00018d4f20,30,male,1,1,45,Clear_not_profit_side,no_enforcement2,0,0,-,left,16,9,1000,1.45,right,left,2,1,0,0.061,59,118,200,398,0.398,1.8479999999999999,27-05-2020,18:26:20
578f9f52eeaf6d00018d4f20,30,male,1,1,46,Ambigous_right,no_enforcement2,0,0,-,left,14,11,1000,1.45,right,left,2,1,0,0.055,59,118,200,398,0.398,1.8479999999999999,27-05-2020,18:26:20
578f9f52eeaf6d00018d4f20,30,male,1,1,47,Ambigous_right,no_enforcement2,0,0,-,left,14,11,1000,1.45,right,left,2,1,0,0.084,59,118,200,398,0.398,1.8479999999999999,27-05-2020,18:26:20
578f9f52eeaf6d00018d4f20,30,male,1,1,48,Clear_not_profit_side,no_enforcement2,0,0,-,left,16,9,1000,1.45,right,left,2,1,0,0.01,59,118,200,398,0.398,1.8479999999999999,27-05-2020,18:26:20
578f9f52eeaf6d00018d4f20,30,male,1,1,49,Ambigous_left,no_enforcement2,0,0,-,left,11,14,1000,1.45,left,left,2,1,1,0.009,59,118,200,398,0.398,1.8479999999999999,27-05-2020,18:26:20
578f9f52eeaf6d00018d4f20,30,male,1,1,50,Ambigous_right,no_enforcement2,0,0,-,left,14,11,1000,1.45,right,left,2,1,0,0.085,59,118,200,398,0.398,1.8479999999999999,27-05-2020,18:26:20
578f9f52eeaf6d00018d4f20,30,male,1,1,51,Clear_profit_side,no_enforcement2,0,0,-,left,9,16,1000,1.45,left,left,2,1,1,0.009,59,118,200,398,0.398,1.8479999999999999,27-05-2020,18:26:20
578f9f52eeaf6d00018d4f20,30,male,1,1,52,Clear_not_profit_side,no_enforcement2,0,0,-,left,16,9,1000,1.45,right,left,2,1,0,0.011,59,118,200,398,0.398,1.8479999999999999,27-05-2020,18:26:20
578f9f52eeaf6d00018d4f20,30,male,1,1,53,Ambigous_left,no_enforcement2,0,0,-,left,11,14,1000,1.45,left,left,2,1,1,0.004,59,118,200,398,0.398,1.8479999999999999,27-05-2020,18:26:20
578f9f52eeaf6d00018d4f20,30,male,1,1,54,Ambigous_right,no_enforcement2,0,0,-,left,14,11,1000,1.45,right,left,2,1,0,0.006,59,118,200,398,0.398,1.8479999999999999,27-05-2020,18:26:20
578f9f52eeaf6d00018d4f20,30,male,1,1,55,Ambigous_left,no_enforcement2,0,0,-,left,11,14,1000,1.45,left,left,2,1,1,0.004,59,118,200,398,0.398,1.8479999999999999,27-05-2020,18:26:20
578f9f52eeaf6d00018d4f20,30,male,1,1,56,Clear_not_profit_side,no_enforcement2,0,0,-,left,16,9,1000,1.45,right,left,2,1,0,0.074,59,118,200,398,0.398,1.8479999999999999,27-05-2020,18:26:20
578f9f52eeaf6d00018d4f20,30,male,1,1,57,Ambigous_left,no_enforcement2,0,0,-,left,11,14,1000,1.45,left,left,2,1,1,0.109,59,118,200,398,0.398,1.8479999999999999,27-05-2020,18:26:20
578f9f52eeaf6d00018d4f20,30,male,1,1,58,Clear_not_profit_side,no_enforcement2,0,0,-,left,16,9,1000,1.45,right,left,2,1,0,0.046,59,118,200,398,0.398,1.8479999999999999,27-05-2020,18:26:20
578f9f52eeaf6d00018d4f20,30,male,1,1,59,Clear_profit_side,no_enforcement2,0,0,-,left,9,16,1000,1.45,left,left,2,1,1,0.064,59,118,200,398,0.398,1.8479999999999999,27-05-2020,18:26:20
578f9f52eeaf6d00018d4f20,30,male,1,1,60,Ambigous_left,no_enforcement2,0,0,-,left,11,14,1000,1.45,left,left,2,1,1,0.043,59,118,200,398,0.398,1.8479999999999999,27-05-2020,18:26:20
578f9f52eeaf6d00018d4f20,30,male,1,1,61,Clear_not_profit_side,no_enforcement2,0,0,-,left,16,9,1000,1.45,right,left,2,1,0,0.047,59,118,200,398,0.398,1.8479999999999999,27-05-2020,18:26:20
578f9f52eeaf6d00018d4f20,30,male,1,1,62,Clear_not_profit_side,no_enforcement2,0,0,-,left,16,9,1000,1.45,right,left,2,1,0,0.078,59,118,200,398,0.398,1.8479999999999999,27-05-2020,18:26:20
578f9f52eeaf6d00018d4f20,30,male,1,1,63,Ambigous_left,no_enforcement2,0,0,-,left,11,14,1000,1.45,left,left,2,1,1,0.028,59,118,200,398,0.398,1.8479999999999999,27-05-2020,18:26:20
578f9f52eeaf6d00018d4f20,30,male,1,1,64,Clear_not_profit_side,no_enforcement2,0,0,-,left,16,9,1000,1.45,right,left,2,1,0,12.626,59,118,200,398,0.398,1.8479999999999999,27-05-2020,18:26:20
578f9f52eeaf6d00018d4f20,30,male,1,1,65,Clear_not_profit_side,no_enforcement2,0,0,-,left,16,9,1000,1.45,right,left,2,1,0,0.06,59,118,200,398,0.398,1.8479999999999999,27-05-2020,18:26:20
578f9f52eeaf6d00018d4f20,30,male,1,1,66,Ambigous_right,no_enforcement2,0,0,-,left,14,11,1000,1.45,right,left,2,1,0,0.144,59,118,200,398,0.398,1.8479999999999999,27-05-2020,18:26:20
578f9f52eeaf6d00018d4f20,30,male,1,1,67,Clear_not_profit_side,no_enforcement2,0,0,-,left,16,9,1000,1.45,right,left,2,1,0,0.107,59,118,200,398,0.398,1.8479999999999999,27-05-2020,18:26:20
578f9f52eeaf6d00018d4f20,30,male,1,1,68,Clear_not_profit_side,no_enforcement2,0,0,-,left,16,9,1000,1.45,right,left,2,1,0,0.126,59,118,200,398,0.398,1.8479999999999999,27-05-2020,18:26:20
578f9f52eeaf6d00018d4f20,30,male,1,1,69,Clear_not_profit_side,no_enforcement2,0,0,-,left,16,9,1000,1.45,right,left,2,1,0,0.082,59,118,200,398,0.398,1.8479999999999999,27-05-2020,18:26:20
578f9f52eeaf6d00018d4f20,30,male,1,1,70,Clear_profit_side,no_enforcement2,0,0,-,left,9,16,1000,1.45,left,left,2,1,1,0.129,59,118,200,398,0.398,1.8479999999999999,27-05-2020,18:26:20
578f9f52eeaf6d00018d4f20,30,male,1,1,71,Ambigous_left,no_enforcement2,0,0,-,left,11,14,1000,1.45,left,left,2,1,1,0.039,59,118,200,398,0.398,1.8479999999999999,27-05-2020,18:26:20
578f9f52eeaf6d00018d4f20,30,male,1,1,72,Clear_not_profit_side,no_enforcement2,0,0,-,left,16,9,1000,1.45,right,left,2,1,0,0.094,59,118,200,398,0.398,1.8479999999999999,27-05-2020,18:26:20
578f9f52eeaf6d00018d4f20,30,male,1,1,73,Clear_profit_side,no_enforcement2,0,0,-,left,9,16,1000,1.45,left,left,2,1,1,0.109,59,118,200,398,0.398,1.8479999999999999,27-05-2020,18:26:20
578f9f52eeaf6d00018d4f20,30,male,1,1,74,Clear_not_profit_side,no_enforcement2,0,0,-,left,16,9,1000,1.45,right,left,2,1,0,0.035,59,118,200,398,0.398,1.8479999999999999,27-05-2020,18:26:20
578f9f52eeaf6d00018d4f20,30,male,1,1,75,Ambigous_left,no_enforcement2,0,0,-,left,11,14,1000,1.45,left,left,2,1,1,0.099,59,118,200,398,0.398,1.8479999999999999,27-05-2020,18:26:20
578f9f52eeaf6d00018d4f20,30,male,1,1,76,Clear_not_profit_side,no_enforcement2,0,0,-,left,16,9,1000,1.45,right,left,2,1,0,0.034,59,118,200,398,0.398,1.8479999999999999,27-05-2020,18:26:20
578f9f52eeaf6d00018d4f20,30,male,1,1,77,Clear_not_profit_side,no_enforcement2,0,0,-,left,16,9,1000,1.45,right,left,2,1,0,0.084,59,118,200,398,0.398,1.8479999999999999,27-05-2020,18:26:20
578f9f52eeaf6d00018d4f20,30,male,1,1,78,Ambigous_right,no_enforcement2,0,0,-,left,14,11,1000,1.45,right,left,2,1,0,0.017,59,118,200,398,0.398,1.8479999999999999,27-05-2020,18:26:20
578f9f52eeaf6d00018d4f20,30,male,1,1,79,Ambigous_right,no_enforcement2,0,0,-,left,14,11,1000,1.45,right,left,2,1,0,0.095,59,118,200,398,0.398,1.8479999999999999,27-05-2020,18:26:20
578f9f52eeaf6d00018d4f20,30,male,1,1,80,Clear_profit_side,no_enforcement2,0,0,-,left,9,16,1000,1.45,left,left,2,1,1,0.048,59,118,200,398,0.398,1.8479999999999999,27-05-2020,18:26:20
578f9f52eeaf6d00018d4f20,30,male,1,1,81,Ambigous_left,no_enforcement2,0,0,-,left,11,14,1000,1.45,left,left,2,1,1,0.059,59,118,200,398,0.398,1.8479999999999999,27-05-2020,18:26:20
578f9f52eeaf6d00018d4f20,30,male,1,1,82,Ambigous_left,no_enforcement2,0,0,-,left,11,14,1000,1.45,left,left,2,1,1,0.038,59,118,200,398,0.398,1.8479999999999999,27-05-2020,18:26:20
578f9f52eeaf6d00018d4f20,30,male,1,1,83,Clear_not_profit_side,no_enforcement2,0,0,-,left,16,9,1000,1.45,right,left,2,1,0,0.089,59,118,200,398,0.398,1.8479999999999999,27-05-2020,18:26:20
578f9f52eeaf6d00018d4f20,30,male,1,1,84,Ambigous_left,no_enforcement2,0,0,-,left,11,14,1000,1.45,left,left,2,1,1,0.048,59,118,200,398,0.398,1.8479999999999999,27-05-2020,18:26:20
578f9f52eeaf6d00018d4f20,30,male,1,1,85,Clear_not_profit_side,no_enforcement2,0,0,-,left,16,9,1000,1.45,right,left,2,1,0,0.04,59,118,200,398,0.398,1.8479999999999999,27-05-2020,18:26:20
578f9f52eeaf6d00018d4f20,30,male,1,1,86,Ambigous_left,no_enforcement2,0,0,-,left,11,14,1000,1.45,left,left,2,1,1,0.055,59,118,200,398,0.398,1.8479999999999999,27-05-2020,18:26:20
578f9f52eeaf6d00018d4f20,30,male,1,1,87,Clear_not_profit_side,no_enforcement2,0,0,-,left,16,9,1000,1.45,right,left,2,1,0,0.045,59,118,200,398,0.398,1.8479999999999999,27-05-2020,18:26:20
578f9f52eeaf6d00018d4f20,30,male,1,1,88,Ambigous_left,no_enforcement2,0,0,-,left,11,14,1000,1.45,left,left,2,1,1,0.074,59,118,200,398,0.398,1.8479999999999999,27-05-2020,18:26:20
578f9f52eeaf6d00018d4f20,30,male,1,1,89,Ambigous_right,no_enforcement2,0,0,-,left,14,11,1000,1.45,right,left,2,1,0,3.1,59,118,200,398,0.398,1.8479999999999999,27-05-2020,18:26:20
578f9f52eeaf6d00018d4f20,30,male,1,1,90,Clear_profit_side,no_enforcement2,0,0,-,left,9,16,1000,1.45,left,left,2,1,1,0.045,59,118,200,398,0.398,1.8479999999999999,27-05-2020,18:26:20
578f9f52eeaf6d00018d4f20,30,male,1,1,91,Ambigous_right,no_enforcement2,0,0,-,left,14,11,1000,1.45,right,left,2,1,0,0.158,59,118,200,398,0.398,1.8479999999999999,27-05-2020,18:26:20
578f9f52eeaf6d00018d4f20,30,male,1,1,92,Clear_not_profit_side,no_enforcement2,0,0,-,left,16,9,1000,1.45,right,left,2,1,0,0.104,59,118,200,398,0.398,1.8479999999999999,27-05-2020,18:26:20
578f9f52eeaf6d00018d4f20,30,male,1,1,93,Clear_profit_side,no_enforcement2,0,0,-,left,9,16,1000,1.45,left,left,2,1,1,0.046,59,118,200,398,0.398,1.8479999999999999,27-05-2020,18:26:20
578f9f52eeaf6d00018d4f20,30,male,1,1,94,Clear_not_profit_side,no_enforcement2,0,0,-,left,16,9,1000,1.45,right,left,2,1,0,0.02,59,118,200,398,0.398,1.8479999999999999,27-05-2020,18:26:20
578f9f52eeaf6d00018d4f20,30,male,1,1,95,Ambigous_right,no_enforcement2,0,0,-,left,14,11,1000,1.45,right,left,2,1,0,0.051,59,118,200,398,0.398,1.8479999999999999,27-05-2020,18:26:20
578f9f52eeaf6d00018d4f20,30,male,1,1,96,Clear_profit_side,no_enforcement2,0,0,-,left,9,16,1000,1.45,left,left,2,1,1,0.017,59,118,200,398,0.398,1.8479999999999999,27-05-2020,18:26:20
578f9f52eeaf6d00018d4f20,30,male,1,1,97,Ambigous_left,no_enforcement2,0,0,-,left,11,14,1000,1.45,left,left,2,1,1,0.055,59,118,200,398,0.398,1.8479999999999999,27-05-2020,18:26:20
578f9f52eeaf6d00018d4f20,30,male,1,1,98,Clear_profit_side,no_enforcement2,0,0,-,left,9,16,1000,1.45,left,left,2,1,1,0.027,59,118,200,398,0.398,1.8479999999999999,27-05-2020,18:26:20
578f9f52eeaf6d00018d4f20,30,male,1,1,99,Ambigous_right,no_enforcement2,0,0,-,left,14,11,1000,1.45,right,left,2,1,0,0.068,59,118,200,398,0.398,1.8479999999999999,27-05-2020,18:26:20
578f9f52eeaf6d00018d4f20,30,male,1,1,100,Clear_profit_side,no_enforcement2,0,0,-,left,9,16,1000,1.45,left,left,2,1,1,0.017,59,118,200,398,0.398,1.8479999999999999,27-05-2020,18:26:20
578f9f52eeaf6d00018d4f20,30,male,1,2,1,Clear_not_profit_side,no_enforcement2,0,0,-,left,16,9,1000,1.45,right,left,2,1,0,0.025,59,118,198,398,0.398,1.8479999999999999,27-05-2020,18:26:20
578f9f52eeaf6d00018d4f20,30,male,1,2,2,Ambigous_right,no_enforcement2,0,0,-,left,14,11,1000,1.45,right,left,2,1,0,0.117,59,118,198,398,0.398,1.8479999999999999,27-05-2020,18:26:20
578f9f52eeaf6d00018d4f20,30,male,1,2,3,Ambigous_right,no_enforcement2,0,0,-,left,14,11,1000,1.45,right,left,2,1,0,0.037,59,118,198,398,0.398,1.8479999999999999,27-05-2020,18:26:20
578f9f52eeaf6d00018d4f20,30,male,1,2,5,Clear_profit_side,no_enforcement2,0,0,-,left,9,16,1000,1.45,left,left,2,1,1,0.037,59,118,198,398,0.398,1.8479999999999999,27-05-2020,18:26:20
578f9f52eeaf6d00018d4f20,30,male,1,2,6,Clear_not_profit_side,no_enforcement2,0,0,-,left,16,9,1000,1.45,right,left,2,1,0,0.043,59,118,198,398,0.398,1.8479999999999999,27-05-2020,18:26:20
578f9f52eeaf6d00018d4f20,30,male,1,2,7,Clear_not_profit_side,no_enforcement2,0,0,-,left,16,9,1000,1.45,right,left,2,1,0,0.074,59,118,198,398,0.398,1.8479999999999999,27-05-2020,18:26:20
578f9f52eeaf6d00018d4f20,30,male,1,2,8,Ambigous_right,no_enforcement2,0,0,-,left,14,11,1000,1.45,right,left,2,1,0,0.06,59,118,198,398,0.398,1.8479999999999999,27-05-2020,18:26:20
578f9f52eeaf6d00018d4f20,30,male,1,2,9,Clear_not_profit_side,no_enforcement2,0,0,-,left,16,9,1000,1.45,right,left,2,1,0,0.036,59,118,198,398,0.398,1.8479999999999999,27-05-2020,18:26:20
578f9f52eeaf6d00018d4f20,30,male,1,2,10,Ambigous_left,no_enforcement2,0,0,-,left,11,14,1000,1.45,left,left,2,1,1,0.039,59,118,198,398,0.398,1.8479999999999999,27-05-2020,18:26:20
578f9f52eeaf6d00018d4f20,30,male,1,2,11,Ambigous_right,no_enforcement2,0,0,-,left,14,11,1000,1.45,right,left,2,1,0,0.038,59,118,198,398,0.398,1.8479999999999999,27-05-2020,18:26:20
578f9f52eeaf6d00018d4f20,30,male,1,2,12,Clear_not_profit_side,no_enforcement2,0,0,-,left,16,9,1000,1.45,right,left,2,1,0,0.096,59,118,198,398,0.398,1.8479999999999999,27-05-2020,18:26:20
578f9f52eeaf6d00018d4f20,30,male,1,2,13,Ambigous_right,no_enforcement2,0,0,-,left,14,11,1000,1.45,right,left,2,1,0,0.085,59,118,198,398,0.398,1.8479999999999999,27-05-2020,18:26:20
578f9f52eeaf6d00018d4f20,30,male,1,2,14,Ambigous_left,no_enforcement2,0,0,-,left,11,14,1000,1.45,left,left,2,1,1,0.047,59,118,198,398,0.398,1.8479999999999999,27-05-2020,18:26:20
578f9f52eeaf6d00018d4f20,30,male,1,2,15,Clear_profit_side,no_enforcement2,0,0,-,left,9,16,1000,1.45,left,left,2,1,1,0.051,59,118,198,398,0.398,1.8479999999999999,27-05-2020,18:26:20
578f9f52eeaf6d00018d4f20,30,male,1,2,16,Clear_not_profit_side,no_enforcement2,0,0,-,left,16,9,1000,1.45,right,left,2,1,0,0.02,59,118,198,398,0.398,1.8479999999999999,27-05-2020,18:26:20
578f9f52eeaf6d00018d4f20,30,male,1,2,17,Clear_not_profit_side,no_enforcement2,0,0,-,left,16,9,1000,1.45,right,left,2,1,0,0.126,59,118,198,398,0.398,1.8479999999999999,27-05-2020,18:26:20
578f9f52eeaf6d00018d4f20,30,male,1,2,18,Clear_not_profit_side,no_enforcement2,0,0,-,left,16,9,1000,1.45,right,left,2,1,0,0.032,59,118,198,398,0.398,1.8479999999999999,27-05-2020,18:26:20
578f9f52eeaf6d00018d4f20,30,male,1,2,19,Clear_profit_side,no_enforcement2,0,0,-,left,9,16,1000,1.45,left,left,2,1,1,0.051,59,118,198,398,0.398,1.8479999999999999,27-05-2020,18:26:20
578f9f52eeaf6d00018d4f20,30,male,1,2,20,Ambigous_right,no_enforcement2,0,0,-,left,14,11,1000,1.45,right,left,2,1,0,0.064,59,118,198,398,0.398,1.8479999999999999,27-05-2020,18:26:20
578f9f52eeaf6d00018d4f20,30,male,1,2,21,Ambigous_right,no_enforcement2,0,0,-,left,14,11,1000,1.45,right,left,2,1,0,0.052,59,118,198,398,0.398,1.8479999999999999,27-05-2020,18:26:20
578f9f52eeaf6d00018d4f20,30,male,1,2,22,Clear_not_profit_side,no_enforcement2,0,0,-,left,16,9,1000,1.45,right,left,2,1,0,0.052,59,118,198,398,0.398,1.8479999999999999,27-05-2020,18:26:20
578f9f52eeaf6d00018d4f20,30,male,1,2,23,Ambigous_right,no_enforcement2,0,0,-,left,14,11,1000,1.45,right,left,2,1,0,0.031,59,118,198,398,0.398,1.8479999999999999,27-05-2020,18:26:20
578f9f52eeaf6d00018d4f20,30,male,1,2,24,Ambigous_right,no_enforcement2,0,0,-,left,14,11,1000,1.45,right,left,2,1,0,0.028,59,118,198,398,0.398,1.8479999999999999,27-05-2020,18:26:20
578f9f52eeaf6d00018d4f20,30,male,1,2,25,Ambigous_left,no_enforcement2,0,0,-,left,11,14,1000,1.45,left,left,2,1,1,0.026,59,118,198,398,0.398,1.8479999999999999,27-05-2020,18:26:20
578f9f52eeaf6d00018d4f20,30,male,1,2,26,Ambigous_left,no_enforcement2,0,0,-,left,11,14,1000,1.45,left,left,2,1,1,0.041,59,118,198,398,0.398,1.8479999999999999,27-05-2020,18:26:20
578f9f52eeaf6d00018d4f20,30,male,1,2,27,Ambigous_left,no_enforcement2,0,0,-,left,11,14,1000,1.45,left,left,2,1,1,0.053,59,118,198,398,0.398,1.8479999999999999,27-05-2020,18:26:20
578f9f52eeaf6d00018d4f20,30,male,1,2,28,Clear_not_profit_side,no_enforcement2,0,0,-,left,16,9,1000,1.45,right,left,2,1,0,0.042,59,118,198,398,0.398,1.8479999999999999,27-05-2020,18:26:20
578f9f52eeaf6d00018d4f20,30,male,1,2,29,Clear_not_profit_side,no_enforcement2,0,0,-,left,16,9,1000,1.45,right,left,2,1,0,0.059,59,118,198,398,0.398,1.8479999999999999,27-05-2020,18:26:20
578f9f52eeaf6d00018d4f20,30,male,1,2,30,Ambigous_right,no_enforcement2,0,0,-,left,14,11,1000,1.45,right,left,2,1,0,0.026,59,118,198,398,0.398,1.8479999999999999,27-05-2020,18:26:20
578f9f52eeaf6d00018d4f20,30,male,1,2,31,Clear_not_profit_side,no_enforcement2,0,0,-,left,16,9,1000,1.45,right,left,2,1,0,0.091,59,118,198,398,0.398,1.8479999999999999,27-05-2020,18:26:20
578f9f52eeaf6d00018d4f20,30,male,1,2,32,Ambigous_left,no_enforcement2,0,0,-,left,11,14,1000,1.45,left,left,2,1,1,0.032,59,118,198,398,0.398,1.8479999999999999,27-05-2020,18:26:20
578f9f52eeaf6d00018d4f20,30,male,1,2,33,Clear_profit_side,no_enforcement2,0,0,-,left,9,16,1000,1.45,left,left,2,1,1,0.049,59,118,198,398,0.398,1.8479999999999999,27-05-2020,18:26:20
578f9f52eeaf6d00018d4f20,30,male,1,2,34,Clear_not_profit_side,no_enforcement2,0,0,-,left,16,9,1000,1.45,right,left,2,1,0,0.034,59,118,198,398,0.398,1.8479999999999999,27-05-2020,18:26:20
578f9f52eeaf6d00018d4f20,30,male,1,2,35,Clear_not_profit_side,no_enforcement2,0,0,-,left,16,9,1000,1.45,right,left,2,1,0,0.006,59,118,198,398,0.398,1.8479999999999999,27-05-2020,18:26:20
578f9f52eeaf6d00018d4f20,30,male,1,2,36,Clear_profit_side,no_enforcement2,0,0,-,left,9,16,1000,1.45,left,left,2,1,1,0.012,59,118,198,398,0.398,1.8479999999999999,27-05-2020,18:26:20
578f9f52eeaf6d00018d4f20,30,male,1,2,37,Clear_profit_side,no_enforcement2,0,0,-,left,9,16,1000,1.45,left,left,2,1,1,0.054,59,118,198,398,0.398,1.8479999999999999,27-05-2020,18:26:20
578f9f52eeaf6d00018d4f20,30,male,1,2,38,Clear_profit_side,no_enforcement2,0,0,-,left,9,16,1000,1.45,left,left,2,1,1,0.079,59,118,198,398,0.398,1.8479999999999999,27-05-2020,18:26:20
578f9f52eeaf6d00018d4f20,30,male,1,2,39,Ambigous_left,no_enforcement2,0,0,-,left,11,14,1000,1.45,left,left,2,1,1,0.05,59,118,198,398,0.398,1.8479999999999999,27-05-2020,18:26:20
578f9f52eeaf6d00018d4f20,30,male,1,2,40,Clear_not_profit_side,no_enforcement2,0,0,-,left,16,9,1000,1.45,right,left,2,1,0,0.026,59,118,198,398,0.398,1.8479999999999999,27-05-2020,18:26:20
578f9f52eeaf6d00018d4f20,30,male,1,2,41,Ambigous_left,no_enforcement2,0,0,-,left,11,14,1000,1.45,left,left,2,1,1,0.04,59,118,198,398,0.398,1.8479999999999999,27-05-2020,18:26:20
578f9f52eeaf6d00018d4f20,30,male,1,2,42,Ambigous_left,no_enforcement2,0,0,-,left,11,14,1000,1.45,left,left,2,1,1,0.017,59,118,198,398,0.398,1.8479999999999999,27-05-2020,18:26:20
578f9f52eeaf6d00018d4f20,30,male,1,2,43,Clear_not_profit_side,no_enforcement2,0,0,-,left,16,9,1000,1.45,right,left,2,1,0,0.039,59,118,198,398,0.398,1.8479999999999999,27-05-2020,18:26:20
578f9f52eeaf6d00018d4f20,30,male,1,2,44,Ambigous_right,no_enforcement2,0,0,-,left,14,11,1000,1.45,right,left,2,1,0,0.04,59,118,198,398,0.398,1.8479999999999999,27-05-2020,18:26:20
578f9f52eeaf6d00018d4f20,30,male,1,2,45,Clear_not_profit_side,no_enforcement2,0,0,-,left,16,9,1000,1.45,right,left,2,1,0,0.045,59,118,198,398,0.398,1.8479999999999999,27-05-2020,18:26:20
578f9f52eeaf6d00018d4f20,30,male,1,2,46,Ambigous_left,no_enforcement2,0,0,-,left,11,14,1000,1.45,left,left,2,1,1,0.014,59,118,198,398,0.398,1.8479999999999999,27-05-2020,18:26:20
578f9f52eeaf6d00018d4f20,30,male,1,2,47,Ambigous_left,no_enforcement2,0,0,-,left,11,14,1000,1.45,left,left,2,1,1,0.013,59,118,198,398,0.398,1.8479999999999999,27-05-2020,18:26:20
578f9f52eeaf6d00018d4f20,30,male,1,2,48,Clear_not_profit_side,no_enforcement2,0,0,-,left,16,9,1000,1.45,right,left,2,1,0,0.06,59,118,198,398,0.398,1.8479999999999999,27-05-2020,18:26:20
578f9f52eeaf6d00018d4f20,30,male,1,2,49,Clear_profit_side,no_enforcement2,0,0,-,left,9,16,1000,1.45,left,left,2,1,1,0.034,59,118,198,398,0.398,1.8479999999999999,27-05-2020,18:26:20
578f9f52eeaf6d00018d4f20,30,male,1,2,50,Ambigous_right,no_enforcement2,0,0,-,left,14,11,1000,1.45,right,left,2,1,0,1.628,59,118,198,398,0.398,1.8479999999999999,27-05-2020,18:26:20
578f9f52eeaf6d00018d4f20,30,male,1,2,51,Clear_profit_side,no_enforcement2,0,0,-,left,9,16,1000,1.45,left,left,2,1,1,0.04,59,118,198,398,0.398,1.8479999999999999,27-05-2020,18:26:20
578f9f52eeaf6d00018d4f20,30,male,1,2,52,Clear_not_profit_side,no_enforcement2,0,0,-,left,16,9,1000,1.45,right,left,2,1,0,0.044,59,118,198,398,0.398,1.8479999999999999,27-05-2020,18:26:20
578f9f52eeaf6d00018d4f20,30,male,1,2,53,Ambigous_left,no_enforcement2,0,0,-,left,11,14,1000,1.45,left,left,2,1,1,0.1,59,118,198,398,0.398,1.8479999999999999,27-05-2020,18:26:20
578f9f52eeaf6d00018d4f20,30,male,1,2,54,Clear_not_profit_side,no_enforcement2,0,0,-,left,16,9,1000,1.45,right,left,2,1,0,0.023,59,118,198,398,0.398,1.8479999999999999,27-05-2020,18:26:20
578f9f52eeaf6d00018d4f20,30,male,1,2,55,Ambigous_right,no_enforcement2,0,0,-,left,14,11,1000,1.45,right,left,2,1,0,0.04,59,118,198,398,0.398,1.8479999999999999,27-05-2020,18:26:20
578f9f52eeaf6d00018d4f20,30,male,1,2,56,Ambigous_right,no_enforcement2,0,0,-,left,14,11,1000,1.45,right,left,2,1,0,0.047,59,118,198,398,0.398,1.8479999999999999,27-05-2020,18:26:20
578f9f52eeaf6d00018d4f20,30,male,1,2,57,Clear_profit_side,no_enforcement2,0,0,-,left,9,16,1000,1.45,left,left,2,1,1,0.063,59,118,198,398,0.398,1.8479999999999999,27-05-2020,18:26:20
578f9f52eeaf6d00018d4f20,30,male,1,2,58,Ambigous_left,no_enforcement2,0,0,-,left,11,14,1000,1.45,left,left,2,1,1,0.018,59,118,198,398,0.398,1.8479999999999999,27-05-2020,18:26:20
578f9f52eeaf6d00018d4f20,30,male,1,2,59,Ambigous_left,no_enforcement2,0,0,-,left,11,14,1000,1.45,left,left,2,1,1,0.017,59,118,198,398,0.398,1.8479999999999999,27-05-2020,18:26:20
578f9f52eeaf6d00018d4f20,30,male,1,2,60,Clear_not_profit_side,no_enforcement2,0,0,-,left,16,9,1000,1.45,right,left,2,1,0,0.064,59,118,198,398,0.398,1.8479999999999999,27-05-2020,18:26:20
578f9f52eeaf6d00018d4f20,30,male,1,2,61,Clear_not_profit_side,no_enforcement2,0,0,-,left,16,9,1000,1.45,right,left,2,1,0,0.033,59,118,198,398,0.398,1.8479999999999999,27-05-2020,18:26:20
578f9f52eeaf6d00018d4f20,30,male,1,2,62,Clear_profit_side,no_enforcement2,0,0,-,left,9,16,1000,1.45,left,left,2,1,1,0.036,59,118,198,398,0.398,1.8479999999999999,27-05-2020,18:26:20
578f9f52eeaf6d00018d4f20,30,male,1,2,63,Ambigous_right,no_enforcement2,0,0,-,left,14,11,1000,1.45,right,left,2,1,0,0.042,59,118,198,398,0.398,1.8479999999999999,27-05-2020,18:26:20
578f9f52eeaf6d00018d4f20,30,male,1,2,64,Ambigous_right,no_enforcement2,0,0,-,left,14,11,1000,1.45,right,left,2,1,0,0.089,59,118,198,398,0.398,1.8479999999999999,27-05-2020,18:26:20
578f9f52eeaf6d00018d4f20,30,male,1,2,65,Ambigous_right,no_enforcement2,0,0,-,left,14,11,1000,1.45,right,left,2,1,0,0.027,59,118,198,398,0.398,1.8479999999999999,27-05-2020,18:26:20
578f9f52eeaf6d00018d4f20,30,male,1,2,66,Ambigous_right,no_enforcement2,0,0,-,left,14,11,1000,1.45,right,left,2,1,0,0.065,59,118,198,398,0.398,1.8479999999999999,27-05-2020,18:26:20
578f9f52eeaf6d00018d4f20,30,male,1,2,67,Clear_profit_side,no_enforcement2,0,0,-,left,9,16,1000,1.45,left,left,2,1,1,0.077,59,118,198,398,0.398,1.8479999999999999,27-05-2020,18:26:20
578f9f52eeaf6d00018d4f20,30,male,1,2,68,Clear_not_profit_side,no_enforcement2,0,0,-,left,16,9,1000,1.45,right,left,2,1,0,0.06,59,118,198,398,0.398,1.8479999999999999,27-05-2020,18:26:20
578f9f52eeaf6d00018d4f20,30,male,1,2,69,Ambigous_left,no_enforcement2,0,0,-,left,11,14,1000,1.45,left,left,2,1,1,0.067,59,118,198,398,0.398,1.8479999999999999,27-05-2020,18:26:20
578f9f52eeaf6d00018d4f20,30,male,1,2,70,Ambigous_left,no_enforcement2,0,0,-,left,11,14,1000,1.45,left,left,2,1,1,0.081,59,118,198,398,0.398,1.8479999999999999,27-05-2020,18:26:20
578f9f52eeaf6d00018d4f20,30,male,1,2,71,Ambigous_left,no_enforcement2,0,0,-,left,11,14,1000,1.45,left,left,2,1,1,0.069,59,118,198,398,0.398,1.8479999999999999,27-05-2020,18:26:20
578f9f52eeaf6d00018d4f20,30,male,1,2,72,Ambigous_right,no_enforcement2,0,0,-,left,14,11,1000,1.45,right,left,2,1,0,0.013,59,118,198,398,0.398,1.8479999999999999,27-05-2020,18:26:20
578f9f52eeaf6d00018d4f20,30,male,1,2,73,Clear_not_profit_side,no_enforcement2,0,0,-,left,16,9,1000,1.45,right,left,2,1,0,0.037,59,118,198,398,0.398,1.8479999999999999,27-05-2020,18:26:20
578f9f52eeaf6d00018d4f20,30,male,1,2,74,Clear_not_profit_side,no_enforcement2,0,0,-,left,16,9,1000,1.45,right,left,2,1,0,0.081,59,118,198,398,0.398,1.8479999999999999,27-05-2020,18:26:20
578f9f52eeaf6d00018d4f20,30,male,1,2,75,Ambigous_left,no_enforcement2,0,0,-,left,11,14,1000,1.45,left,left,2,1,1,0.027,59,118,198,398,0.398,1.8479999999999999,27-05-2020,18:26:20
578f9f52eeaf6d00018d4f20,30,male,1,2,76,Ambigous_right,no_enforcement2,0,0,-,left,14,11,1000,1.45,right,left,2,1,0,0.054,59,118,198,398,0.398,1.8479999999999999,27-05-2020,18:26:20
578f9f52eeaf6d00018d4f20,30,male,1,2,77,Ambigous_right,no_enforcement2,0,0,-,left,14,11,1000,1.45,right,left,2,1,0,0.042,59,118,198,398,0.398,1.8479999999999999,27-05-2020,18:26:20
578f9f52eeaf6d00018d4f20,30,male,1,2,78,Clear_not_profit_side,no_enforcement2,0,0,-,left,16,9,1000,1.45,right,left,2,1,0,0.024,59,118,198,398,0.398,1.8479999999999999,27-05-2020,18:26:20
578f9f52eeaf6d00018d4f20,30,male,1,2,79,Clear_not_profit_side,no_enforcement2,0,0,-,left,16,9,1000,1.45,right,left,2,1,0,0.03,59,118,198,398,0.398,1.8479999999999999,27-05-2020,18:26:20
578f9f52eeaf6d00018d4f20,30,male,1,2,80,Clear_not_profit_side,no_enforcement2,0,0,-,left,16,9,1000,1.45,right,left,2,1,0,0.09,59,118,198,398,0.398,1.8479999999999999,27-05-2020,18:26:20
578f9f52eeaf6d00018d4f20,30,male,1,2,81,Clear_not_profit_side,no_enforcement2,0,0,-,left,16,9,1000,1.45,right,left,2,1,0,0.052,59,118,198,398,0.398,1.8479999999999999,27-05-2020,18:26:20
578f9f52eeaf6d00018d4f20,30,male,1,2,82,Clear_not_profit_side,no_enforcement2,0,0,-,left,16,9,1000,1.45,right,left,2,1,0,0.032,59,118,198,398,0.398,1.8479999999999999,27-05-2020,18:26:20
578f9f52eeaf6d00018d4f20,30,male,1,2,83,Clear_profit_side,no_enforcement2,0,0,-,left,9,16,1000,1.45,left,left,2,1,1,0.018,59,118,198,398,0.398,1.8479999999999999,27-05-2020,18:26:20
578f9f52eeaf6d00018d4f20,30,male,1,2,84,Ambigous_left,no_enforcement2,0,0,-,left,11,14,1000,1.45,left,left,2,1,1,0.079,59,118,198,398,0.398,1.8479999999999999,27-05-2020,18:26:20
578f9f52eeaf6d00018d4f20,30,male,1,2,85,Clear_profit_side,no_enforcement2,0,0,-,left,9,16,1000,1.45,left,left,2,1,1,0.037,59,118,198,398,0.398,1.8479999999999999,27-05-2020,18:26:20
578f9f52eeaf6d00018d4f20,30,male,1,2,86,Clear_profit_side,no_enforcement2,0,0,-,left,9,16,1000,1.45,left,left,2,1,1,0.08,59,118,198,398,0.398,1.8479999999999999,27-05-2020,18:26:20
578f9f52eeaf6d00018d4f20,30,male,1,2,87,Ambigous_left,no_enforcement2,0,0,-,left,11,14,1000,1.45,left,left,2,1,1,0.072,59,118,198,398,0.398,1.8479999999999999,27-05-2020,18:26:20
578f9f52eeaf6d00018d4f20,30,male,1,2,88,Clear_not_profit_side,no_enforcement2,0,0,-,left,16,9,1000,1.45,right,left,2,1,0,0.048,59,118,198,398,0.398,1.8479999999999999,27-05-2020,18:26:20
578f9f52eeaf6d00018d4f20,30,male,1,2,89,Clear_not_profit_side,no_enforcement2,0,0,-,left,16,9,1000,1.45,right,left,2,1,0,0.066,59,118,198,398,0.398,1.8479999999999999,27-05-2020,18:26:20
578f9f52eeaf6d00018d4f20,30,male,1,2,90,Ambigous_left,no_enforcement2,0,0,-,left,11,14,1000,1.45,left,left,2,1,1,0.066,59,118,198,398,0.398,1.8479999999999999,27-05-2020,18:26:20
578f9f52eeaf6d00018d4f20,30,male,1,2,91,Ambigous_right,no_enforcement2,0,0,-,left,14,11,1000,1.45,right,left,2,1,0,0.084,59,118,198,398,0.398,1.8479999999999999,27-05-2020,18:26:20
578f9f52eeaf6d00018d4f20,30,male,1,2,92,Ambigous_right,no_enforcement2,0,0,-,left,14,11,1000,1.45,right,left,2,1,0,0.007,59,118,198,398,0.398,1.8479999999999999,27-05-2020,18:26:20
578f9f52eeaf6d00018d4f20,30,male,1,2,93,Ambigous_right,no_enforcement2,0,0,-,left,14,11,1000,1.45,right,left,2,1,0,0.098,59,118,198,398,0.398,1.8479999999999999,27-05-2020,18:26:20
578f9f52eeaf6d00018d4f20,30,male,1,2,94,Ambigous_left,no_enforcement2,0,0,-,left,11,14,1000,1.45,left,left,2,1,1,0.064,59,118,198,398,0.398,1.8479999999999999,27-05-2020,18:26:20
578f9f52eeaf6d00018d4f20,30,male,1,2,95,Clear_profit_side,no_enforcement2,0,0,-,left,9,16,1000,1.45,left,left,2,1,1,0.06,59,118,198,398,0.398,1.8479999999999999,27-05-2020,18:26:20
578f9f52eeaf6d00018d4f20,30,male,1,2,96,Ambigous_left,no_enforcement2,0,0,-,left,11,14,1000,1.45,left,left,2,1,1,0.058,59,118,198,398,0.398,1.8479999999999999,27-05-2020,18:26:20
578f9f52eeaf6d00018d4f20,30,male,1,2,97,Clear_not_profit_side,no_enforcement2,0,0,-,left,16,9,1000,1.45,right,left,2,1,0,0.071,59,118,198,398,0.398,1.8479999999999999,27-05-2020,18:26:20
578f9f52eeaf6d00018d4f20,30,male,1,2,98,Ambigous_right,no_enforcement2,0,0,-,left,14,11,1000,1.45,right,left,2,1,0,0.063,59,118,198,398,0.398,1.8479999999999999,27-05-2020,18:26:20
578f9f52eeaf6d00018d4f20,30,male,1,2,99,Ambigous_left,no_enforcement2,0,0,-,left,11,14,1000,1.45,left,left,2,1,1,0.059,59,118,198,398,0.398,1.8479999999999999,27-05-2020,18:26:20
578f9f52eeaf6d00018d4f20,30,male,1,2,100,Clear_not_profit_side,no_enforcement2,0,0,-,left,16,9,1000,1.45,right,left,2,1,0,0.026,59,118,198,398,0.398,1.8479999999999999,27-05-2020,18:26:20
595bf7acc76e6700014d33fc,52,female,1,1,1,Clear_not_profit_side,low_enforcement,10,0,-,left,16,9,1000,1.45,right,right,1,20,1,0.171,9,22,642,1170,1.17,2.62,27-05-2020,17:21:37
595bf7acc76e6700014d33fc,52,female,1,1,2,Clear_profit_side,low_enforcement,10,0,-,left,9,16,1000,1.45,left,left,20,1,1,0.064,9,22,642,1170,1.17,2.62,27-05-2020,17:21:37
595bf7acc76e6700014d33fc,52,female,1,1,3,Ambigous_left,low_enforcement,10,0,-,left,11,14,1000,1.45,left,left,20,1,1,0.068,9,22,642,1170,1.17,2.62,27-05-2020,17:21:37
595bf7acc76e6700014d33fc,52,female,1,1,4,Clear_profit_side,low_enforcement,10,0,-,left,9,16,1000,1.45,left,left,20,1,1,0.082,9,22,642,1170,1.17,2.62,27-05-2020,17:21:37
595bf7acc76e6700014d33fc,52,female,1,1,5,Ambigous_left,low_enforcement,10,0,-,left,11,14,1000,1.45,left,right,1,20,0,0.068,9,22,642,1170,1.17,2.62,27-05-2020,17:21:37
595bf7acc76e6700014d33fc,52,female,1,1,6,Ambigous_left,low_enforcement,10,0,-,left,11,14,1000,1.45,left,left,20,1,1,0.064,9,22,642,1170,1.17,2.62,27-05-2020,17:21:37
595bf7acc76e6700014d33fc,52,female,1,1,7,Ambigous_right,low_enforcement,10,0,-,left,14,11,1000,1.45,right,right,1,20,1,0.071,9,22,642,1170,1.17,2.62,27-05-2020,17:21:37
595bf7acc76e6700014d33fc,52,female,1,1,8,Ambigous_right,low_enforcement,10,1,180,left,14,11,1000,1.45,right,right,1,-160,1,0.053,9,22,642,1170,1.17,2.62,27-05-2020,17:21:37
595bf7acc76e6700014d33fc,52,female,1,1,9,Clear_not_profit_side,low_enforcement,10,0,-,left,16,9,1000,1.45,right,right,1,20,1,0.056,9,22,642,1170,1.17,2.62,27-05-2020,17:21:37
595bf7acc76e6700014d33fc,52,female,1,1,10,Clear_profit_side,low_enforcement,10,0,-,left,9,16,1000,1.45,left,left,20,1,1,0.058,9,22,642,1170,1.17,2.62,27-05-2020,17:21:37
595bf7acc76e6700014d33fc,52,female,1,1,11,Clear_not_profit_side,low_enforcement,10,1,180,left,16,9,1000,1.45,right,right,1,-160,1,0.046,9,22,642,1170,1.17,2.62,27-05-2020,17:21:37
595bf7acc76e6700014d33fc,52,female,1,1,12,Clear_not_profit_side,low_enforcement,10,0,-,left,16,9,1000,1.45,right,right,1,20,1,0.073,9,22,642,1170,1.17,2.62,27-05-2020,17:21:37
595bf7acc76e6700014d33fc,52,female,1,1,13,Ambigous_right,low_enforcement,10,0,-,left,14,11,1000,1.45,right,right,1,20,1,0.06,9,22,642,1170,1.17,2.62,27-05-2020,17:21:37
595bf7acc76e6700014d33fc,52,female,1,1,14,Clear_profit_side,low_enforcement,10,0,-,left,9,16,1000,1.45,left,left,20,1,1,0.074,9,22,642,1170,1.17,2.62,27-05-2020,17:21:37
595bf7acc76e6700014d33fc,52,female,1,1,15,Ambigous_left,low_enforcement,10,0,-,left,11,14,1000,1.45,left,right,1,20,0,0.078,9,22,642,1170,1.17,2.62,27-05-2020,17:21:37
595bf7acc76e6700014d33fc,52,female,1,1,16,Ambigous_left,low_enforcement,10,0,-,left,11,14,1000,1.45,left,left,20,1,1,0.059,9,22,642,1170,1.17,2.62,27-05-2020,17:21:37
595bf7acc76e6700014d33fc,52,female,1,1,17,Ambigous_right,low_enforcement,10,0,-,left,14,11,1000,1.45,right,right,1,20,1,0.053,9,22,642,1170,1.17,2.62,27-05-2020,17:21:37
595bf7acc76e6700014d33fc,52,female,1,1,18,Ambigous_right,low_enforcement,10,0,-,left,14,11,1000,1.45,right,right,1,20,1,0.056,9,22,642,1170,1.17,2.62,27-05-2020,17:21:37
595bf7acc76e6700014d33fc,52,female,1,1,19,Ambigous_left,low_enforcement,10,0,-,left,11,14,1000,1.45,left,left,20,1,1,0.048,9,22,642,1170,1.17,2.62,27-05-2020,17:21:37
595bf7acc76e6700014d33fc,52,female,1,1,20,Clear_not_profit_side,low_enforcement,10,0,-,left,16,9,1000,1.45,right,right,1,20,1,0.049,9,22,642,1170,1.17,2.62,27-05-2020,17:21:37
595bf7acc76e6700014d33fc,52,female,1,1,21,Clear_profit_side,low_enforcement,10,0,-,left,9,16,1000,1.45,left,left,20,1,1,0.061,9,22,642,1170,1.17,2.62,27-05-2020,17:21:37
595bf7acc76e6700014d33fc,52,female,1,1,22,Ambigous_right,low_enforcement,10,0,-,left,14,11,1000,1.45,right,left,20,1,0,0.053,9,22,642,1170,1.17,2.62,27-05-2020,17:21:37
595bf7acc76e6700014d33fc,52,female,1,1,23,Clear_not_profit_side,low_enforcement,10,0,-,left,16,9,1000,1.45,right,right,1,20,1,0.056,9,22,642,1170,1.17,2.62,27-05-2020,17:21:37
595bf7acc76e6700014d33fc,52,female,1,1,24,Clear_profit_side,low_enforcement,10,0,-,left,9,16,1000,1.45,left,left,20,1,1,0.049,9,22,642,1170,1.17,2.62,27-05-2020,17:21:37
595bf7acc76e6700014d33fc,52,female,1,1,25,Clear_not_profit_side,low_enforcement,10,0,-,left,16,9,1000,1.45,right,right,1,20,1,0.05,9,22,642,1170,1.17,2.62,27-05-2020,17:21:37
595bf7acc76e6700014d33fc,52,female,1,1,26,Ambigous_left,low_enforcement,10,1,180,left,11,14,1000,1.45,left,left,20,-179,1,0.06,9,22,642,1170,1.17,2.62,27-05-2020,17:21:37
595bf7acc76e6700014d33fc,52,female,1,1,27,Clear_not_profit_side,low_enforcement,10,0,-,left,16,9,1000,1.45,right,right,1,20,1,0.044,9,22,642,1170,1.17,2.62,27-05-2020,17:21:37
595bf7acc76e6700014d33fc,52,female,1,1,28,Ambigous_right,low_enforcement,10,0,-,left,14,11,1000,1.45,right,right,1,20,1,0.04,9,22,642,1170,1.17,2.62,27-05-2020,17:21:37
595bf7acc76e6700014d33fc,52,female,1,1,29,Ambigous_left,low_enforcement,10,0,-,left,11,14,1000,1.45,left,left,20,1,1,0.093,9,22,642,1170,1.17,2.62,27-05-2020,17:21:37
595bf7acc76e6700014d33fc,52,female,1,1,30,Clear_profit_side,low_enforcement,10,0,-,left,9,16,1000,1.45,left,left,20,1,1,0.042,9,22,642,1170,1.17,2.62,27-05-2020,17:21:37
595bf7acc76e6700014d33fc,52,female,1,1,31,Clear_profit_side,low_enforcement,10,0,-,left,9,16,1000,1.45,left,left,20,1,1,0.055,9,22,642,1170,1.17,2.62,27-05-2020,17:21:37
595bf7acc76e6700014d33fc,52,female,1,1,32,Clear_profit_side,low_enforcement,10,0,-,left,9,16,1000,1.45,left,left,20,1,1,0.043,9,22,642,1170,1.17,2.62,27-05-2020,17:21:37
595bf7acc76e6700014d33fc,52,female,1,1,33,Clear_not_profit_side,low_enforcement,10,0,-,left,16,9,1000,1.45,right,right,1,20,1,0.062,9,22,642,1170,1.17,2.62,27-05-2020,17:21:37
595bf7acc76e6700014d33fc,52,female,1,1,34,Clear_not_profit_side,low_enforcement,10,0,-,left,16,9,1000,1.45,right,right,1,20,1,0.056,9,22,642,1170,1.17,2.62,27-05-2020,17:21:37
595bf7acc76e6700014d33fc,52,female,1,1,35,Clear_profit_side,low_enforcement,10,0,-,left,9,16,1000,1.45,left,left,20,1,1,0.059,9,22,642,1170,1.17,2.62,27-05-2020,17:21:37
595bf7acc76e6700014d33fc,52,female,1,1,36,Ambigous_left,low_enforcement,10,0,-,left,11,14,1000,1.45,left,left,20,1,1,0.073,9,22,642,1170,1.17,2.62,27-05-2020,17:21:37
595bf7acc76e6700014d33fc,52,female,1,1,37,Clear_not_profit_side,low_enforcement,10,0,-,left,16,9,1000,1.45,right,right,1,20,1,0.069,9,22,642,1170,1.17,2.62,27-05-2020,17:21:37
595bf7acc76e6700014d33fc,52,female,1,1,38,Clear_not_profit_side,low_enforcement,10,0,-,left,16,9,1000,1.45,right,right,1,20,1,0.047,9,22,642,1170,1.17,2.62,27-05-2020,17:21:37
595bf7acc76e6700014d33fc,52,female,1,1,39,Clear_not_profit_side,low_enforcement,10,1,180,left,16,9,1000,1.45,right,right,1,-160,1,0.042,9,22,642,1170,1.17,2.62,27-05-2020,17:21:37
595bf7acc76e6700014d33fc,52,female,1,1,40,Ambigous_right,low_enforcement,10,0,-,left,14,11,1000,1.45,right,right,1,20,1,0.043,9,22,642,1170,1.17,2.62,27-05-2020,17:21:37
595bf7acc76e6700014d33fc,52,female,1,1,41,Ambigous_left,low_enforcement,10,0,-,left,11,14,1000,1.45,left,left,20,1,1,0.067,9,22,642,1170,1.17,2.62,27-05-2020,17:21:37
595bf7acc76e6700014d33fc,52,female,1,1,42,Ambigous_left,low_enforcement,10,0,-,left,11,14,1000,1.45,left,left,20,1,1,0.039,9,22,642,1170,1.17,2.62,27-05-2020,17:21:37
595bf7acc76e6700014d33fc,52,female,1,1,43,Ambigous_right,low_enforcement,10,0,-,left,14,11,1000,1.45,right,right,1,20,1,0.053,9,22,642,1170,1.17,2.62,27-05-2020,17:21:37
595bf7acc76e6700014d33fc,52,female,1,1,44,Clear_not_profit_side,low_enforcement,10,0,-,left,16,9,1000,1.45,right,right,1,20,1,0.036,9,22,642,1170,1.17,2.62,27-05-2020,17:21:37
595bf7acc76e6700014d33fc,52,female,1,1,45,Ambigous_right,low_enforcement,10,0,-,left,14,11,1000,1.45,right,right,1,20,1,0.041,9,22,642,1170,1.17,2.62,27-05-2020,17:21:37
595bf7acc76e6700014d33fc,52,female,1,1,46,Clear_profit_side,low_enforcement,10,1,180,left,9,16,1000,1.45,left,left,20,-179,1,0.035,9,22,642,1170,1.17,2.62,27-05-2020,17:21:37
595bf7acc76e6700014d33fc,52,female,1,1,47,Clear_profit_side,low_enforcement,10,1,180,left,9,16,1000,1.45,left,left,20,-179,1,0.053,9,22,642,1170,1.17,2.62,27-05-2020,17:21:37
595bf7acc76e6700014d33fc,52,female,1,1,48,Clear_not_profit_side,low_enforcement,10,0,-,left,16,9,1000,1.45,right,right,1,20,1,0.055,9,22,642,1170,1.17,2.62,27-05-2020,17:21:37
595bf7acc76e6700014d33fc,52,female,1,1,49,Ambigous_left,low_enforcement,10,0,-,left,11,14,1000,1.45,left,right,1,20,0,0.057,9,22,642,1170,1.17,2.62,27-05-2020,17:21:37
595bf7acc76e6700014d33fc,52,female,1,1,50,Ambigous_left,low_enforcement,10,0,-,left,11,14,1000,1.45,left,left,20,1,1,0.041,9,22,642,1170,1.17,2.62,27-05-2020,17:21:37
595bf7acc76e6700014d33fc,52,female,1,1,51,Clear_not_profit_side,low_enforcement,10,1,180,left,16,9,1000,1.45,right,right,1,-160,1,0.045,9,22,642,1170,1.17,2.62,27-05-2020,17:21:37
595bf7acc76e6700014d33fc,52,female,1,1,52,Clear_not_profit_side,low_enforcement,10,0,-,left,16,9,1000,1.45,right,right,1,20,1,0.049,9,22,642,1170,1.17,2.62,27-05-2020,17:21:37
595bf7acc76e6700014d33fc,52,female,1,1,53,Ambigous_left,low_enforcement,10,0,-,left,11,14,1000,1.45,left,left,20,1,1,0.057,9,22,642,1170,1.17,2.62,27-05-2020,17:21:37
595bf7acc76e6700014d33fc,52,female,1,1,54,Ambigous_right,low_enforcement,10,1,180,left,14,11,1000,1.45,right,left,-160,-179,0,0.044,9,22,642,1170,1.17,2.62,27-05-2020,17:21:37
595bf7acc76e6700014d33fc,52,female,1,1,55,Clear_not_profit_side,low_enforcement,10,0,-,left,16,9,1000,1.45,right,right,1,20,1,0.055,9,22,642,1170,1.17,2.62,27-05-2020,17:21:37
595bf7acc76e6700014d33fc,52,female,1,1,56,Clear_profit_side,low_enforcement,10,0,-,left,9,16,1000,1.45,left,left,20,1,1,0.056,9,22,642,1170,1.17,2.62,27-05-2020,17:21:37
595bf7acc76e6700014d33fc,52,female,1,1,57,Clear_not_profit_side,low_enforcement,10,1,180,left,16,9,1000,1.45,right,right,1,-160,1,0.049,9,22,642,1170,1.17,2.62,27-05-2020,17:21:37
595bf7acc76e6700014d33fc,52,female,1,1,58,Ambigous_left,low_enforcement,10,1,180,left,11,14,1000,1.45,left,left,20,-179,1,0.046,9,22,642,1170,1.17,2.62,27-05-2020,17:21:37
595bf7acc76e6700014d33fc,52,female,1,1,59,Clear_not_profit_side,low_enforcement,10,0,-,left,16,9,1000,1.45,right,right,1,20,1,0.034,9,22,642,1170,1.17,2.62,27-05-2020,17:21:37
595bf7acc76e6700014d33fc,52,female,1,1,60,Ambigous_right,low_enforcement,10,0,-,left,14,11,1000,1.45,right,right,1,20,1,0.049,9,22,642,1170,1.17,2.62,27-05-2020,17:21:37
595bf7acc76e6700014d33fc,52,female,1,1,61,Clear_not_profit_side,low_enforcement,10,0,-,left,16,9,1000,1.45,right,right,1,20,1,0.054,9,22,642,1170,1.17,2.62,27-05-2020,17:21:37
595bf7acc76e6700014d33fc,52,female,1,1,62,Ambigous_left,low_enforcement,10,0,-,left,11,14,1000,1.45,left,left,20,1,1,0.059,9,22,642,1170,1.17,2.62,27-05-2020,17:21:37
595bf7acc76e6700014d33fc,52,female,1,1,63,Ambigous_left,low_enforcement,10,0,-,left,11,14,1000,1.45,left,left,20,1,1,0.052,9,22,642,1170,1.17,2.62,27-05-2020,17:21:37
595bf7acc76e6700014d33fc,52,female,1,1,64,Ambigous_left,low_enforcement,10,0,-,left,11,14,1000,1.45,left,right,1,20,0,0.064,9,22,642,1170,1.17,2.62,27-05-2020,17:21:37
595bf7acc76e6700014d33fc,52,female,1,1,65,Ambigous_right,low_enforcement,10,0,-,left,14,11,1000,1.45,right,right,1,20,1,0.054,9,22,642,1170,1.17,2.62,27-05-2020,17:21:37
595bf7acc76e6700014d33fc,52,female,1,1,66,Ambigous_right,low_enforcement,10,0,-,left,14,11,1000,1.45,right,right,1,20,1,0.038,9,22,642,1170,1.17,2.62,27-05-2020,17:21:37
595bf7acc76e6700014d33fc,52,female,1,1,67,Ambigous_right,low_enforcement,10,0,-,left,14,11,1000,1.45,right,left,20,1,0,0.052,9,22,642,1170,1.17,2.62,27-05-2020,17:21:37
595bf7acc76e6700014d33fc,52,female,1,1,68,Clear_not_profit_side,low_enforcement,10,1,180,left,16,9,1000,1.45,right,right,1,-160,1,0.034,9,22,642,1170,1.17,2.62,27-05-2020,17:21:37
595bf7acc76e6700014d33fc,52,female,1,1,69,Ambigous_right,low_enforcement,10,0,-,left,14,11,1000,1.45,right,right,1,20,1,0.046,9,22,642,1170,1.17,2.62,27-05-2020,17:21:37
595bf7acc76e6700014d33fc,52,female,1,1,70,Ambigous_left,low_enforcement,10,0,-,left,11,14,1000,1.45,left,left,20,1,1,0.064,9,22,642,1170,1.17,2.62,27-05-2020,17:21:37
595bf7acc76e6700014d33fc,52,female,1,1,71,Ambigous_left,low_enforcement,10,0,-,left,11,14,1000,1.45,left,left,20,1,1,0.036,9,22,642,1170,1.17,2.62,27-05-2020,17:21:37
595bf7acc76e6700014d33fc,52,female,1,1,72,Ambigous_left,low_enforcement,10,0,-,left,11,14,1000,1.45,left,left,20,1,1,0.081,9,22,642,1170,1.17,2.62,27-05-2020,17:21:37
595bf7acc76e6700014d33fc,52,female,1,1,73,Ambigous_right,low_enforcement,10,1,180,left,14,11,1000,1.45,right,right,1,-160,1,0.043,9,22,642,1170,1.17,2.62,27-05-2020,17:21:37
595bf7acc76e6700014d33fc,52,female,1,1,74,Ambigous_left,low_enforcement,10,0,-,left,11,14,1000,1.45,left,right,1,20,0,0.046,9,22,642,1170,1.17,2.62,27-05-2020,17:21:37
595bf7acc76e6700014d33fc,52,female,1,1,75,Clear_not_profit_side,low_enforcement,10,0,-,left,16,9,1000,1.45,right,right,1,20,1,0.038,9,22,642,1170,1.17,2.62,27-05-2020,17:21:37
595bf7acc76e6700014d33fc,52,female,1,1,76,Clear_not_profit_side,low_enforcement,10,0,-,left,16,9,1000,1.45,right,right,1,20,1,0.053,9,22,642,1170,1.17,2.62,27-05-2020,17:21:37
595bf7acc76e6700014d33fc,52,female,1,1,77,Clear_not_profit_side,low_enforcement,10,0,-,left,16,9,1000,1.45,right,right,1,20,1,0.041,9,22,642,1170,1.17,2.62,27-05-2020,17:21:37
595bf7acc76e6700014d33fc,52,female,1,1,78,Clear_profit_side,low_enforcement,10,0,-,left,9,16,1000,1.45,left,left,20,1,1,0.059,9,22,642,1170,1.17,2.62,27-05-2020,17:21:37
595bf7acc76e6700014d33fc,52,female,1,1,79,Clear_not_profit_side,low_enforcement,10,0,-,left,16,9,1000,1.45,right,right,1,20,1,0.037,9,22,642,1170,1.17,2.62,27-05-2020,17:21:37
595bf7acc76e6700014d33fc,52,female,1,1,80,Ambigous_right,low_enforcement,10,0,-,left,14,11,1000,1.45,right,right,1,20,1,0.036,9,22,642,1170,1.17,2.62,27-05-2020,17:21:37
595bf7acc76e6700014d33fc,52,female,1,1,81,Clear_profit_side,low_enforcement,10,0,-,left,9,16,1000,1.45,left,left,20,1,1,0.047,9,22,642,1170,1.17,2.62,27-05-2020,17:21:37
595bf7acc76e6700014d33fc,52,female,1,1,82,Ambigous_right,low_enforcement,10,0,-,left,14,11,1000,1.45,right,right,1,20,1,0.032,9,22,642,1170,1.17,2.62,27-05-2020,17:21:37
595bf7acc76e6700014d33fc,52,female,1,1,83,Clear_not_profit_side,low_enforcement,10,1,180,left,16,9,1000,1.45,right,right,1,-160,1,0.05,9,22,642,1170,1.17,2.62,27-05-2020,17:21:37
595bf7acc76e6700014d33fc,52,female,1,1,84,Clear_not_profit_side,low_enforcement,10,0,-,left,16,9,1000,1.45,right,right,1,20,1,0.035,9,22,642,1170,1.17,2.62,27-05-2020,17:21:37
595bf7acc76e6700014d33fc,52,female,1,1,85,Ambigous_right,low_enforcement,10,0,-,left,14,11,1000,1.45,right,right,1,20,1,0.039,9,22,642,1170,1.17,2.62,27-05-2020,17:21:37
595bf7acc76e6700014d33fc,52,female,1,1,86,Clear_not_profit_side,low_enforcement,10,0,-,left,16,9,1000,1.45,right,right,1,20,1,0.031,9,22,642,1170,1.17,2.62,27-05-2020,17:21:37
595bf7acc76e6700014d33fc,52,female,1,1,87,Clear_not_profit_side,low_enforcement,10,0,-,left,16,9,1000,1.45,right,right,1,20,1,0.044,9,22,642,1170,1.17,2.62,27-05-2020,17:21:37
595bf7acc76e6700014d33fc,52,female,1,1,88,Clear_not_profit_side,low_enforcement,10,0,-,left,16,9,1000,1.45,right,right,1,20,1,0.049,9,22,642,1170,1.17,2.62,27-05-2020,17:21:37
595bf7acc76e6700014d33fc,52,female,1,1,89,Clear_not_profit_side,low_enforcement,10,0,-,left,16,9,1000,1.45,right,right,1,20,1,0.042,9,22,642,1170,1.17,2.62,27-05-2020,17:21:37
595bf7acc76e6700014d33fc,52,female,1,1,90,Clear_not_profit_side,low_enforcement,10,0,-,left,16,9,1000,1.45,right,right,1,20,1,0.046,9,22,642,1170,1.17,2.62,27-05-2020,17:21:37
595bf7acc76e6700014d33fc,52,female,1,1,91,Ambigous_right,low_enforcement,10,0,-,left,14,11,1000,1.45,right,right,1,20,1,0.031,9,22,642,1170,1.17,2.62,27-05-2020,17:21:37
595bf7acc76e6700014d33fc,52,female,1,1,92,Ambigous_right,low_enforcement,10,1,180,left,14,11,1000,1.45,right,right,1,-160,1,0.044,9,22,642,1170,1.17,2.62,27-05-2020,17:21:37
595bf7acc76e6700014d33fc,52,female,1,1,93,Ambigous_right,low_enforcement,10,0,-,left,14,11,1000,1.45,right,right,1,20,1,0.034,9,22,642,1170,1.17,2.62,27-05-2020,17:21:37
595bf7acc76e6700014d33fc,52,female,1,1,94,Ambigous_left,low_enforcement,10,0,-,left,11,14,1000,1.45,left,right,1,20,0,0.049,9,22,642,1170,1.17,2.62,27-05-2020,17:21:37
595bf7acc76e6700014d33fc,52,female,1,1,95,Clear_not_profit_side,low_enforcement,10,0,-,left,16,9,1000,1.45,right,right,1,20,1,0.047,9,22,642,1170,1.17,2.62,27-05-2020,17:21:37
595bf7acc76e6700014d33fc,52,female,1,1,96,Ambigous_left,low_enforcement,10,0,-,left,11,14,1000,1.45,left,left,20,1,1,0.042,9,22,642,1170,1.17,2.62,27-05-2020,17:21:37
595bf7acc76e6700014d33fc,52,female,1,1,97,Ambigous_right,low_enforcement,10,0,-,left,14,11,1000,1.45,right,right,1,20,1,0.031,9,22,642,1170,1.17,2.62,27-05-2020,17:21:37
595bf7acc76e6700014d33fc,52,female,1,1,98,Ambigous_left,low_enforcement,10,0,-,left,11,14,1000,1.45,left,left,20,1,1,0.079,9,22,642,1170,1.17,2.62,27-05-2020,17:21:37
595bf7acc76e6700014d33fc,52,female,1,1,99,Ambigous_right,low_enforcement,10,0,-,left,14,11,1000,1.45,right,right,1,20,1,0.028,9,22,642,1170,1.17,2.62,27-05-2020,17:21:37
595bf7acc76e6700014d33fc,52,female,1,1,100,Clear_profit_side,low_enforcement,10,0,-,left,9,16,1000,1.45,left,left,20,1,1,0.044,9,22,642,1170,1.17,2.62,27-05-2020,17:21:37
595bf7acc76e6700014d33fc,52,female,1,2,1,Ambigous_right,low_enforcement,10,0,-,left,14,11,1000,1.45,right,right,1,20,1,0.026,13,22,528,1170,1.17,2.62,27-05-2020,17:21:37
595bf7acc76e6700014d33fc,52,female,1,2,2,Clear_not_profit_side,low_enforcement,10,0,-,left,16,9,1000,1.45,right,right,1,20,1,0.041,13,22,528,1170,1.17,2.62,27-05-2020,17:21:37
595bf7acc76e6700014d33fc,52,female,1,2,3,Ambigous_right,low_enforcement,10,0,-,left,14,11,1000,1.45,right,right,1,20,1,0.044,13,22,528,1170,1.17,2.62,27-05-2020,17:21:37
595bf7acc76e6700014d33fc,52,female,1,2,4,Clear_profit_side,low_enforcement,10,0,-,left,9,16,1000,1.45,left,left,20,1,1,0.049,13,22,528,1170,1.17,2.62,27-05-2020,17:21:37
595bf7acc76e6700014d33fc,52,female,1,2,5,Clear_not_profit_side,low_enforcement,10,0,-,left,16,9,1000,1.45,right,right,1,20,1,0.039,13,22,528,1170,1.17,2.62,27-05-2020,17:21:37
595bf7acc76e6700014d33fc,52,female,1,2,6,Ambigous_left,low_enforcement,10,0,-,left,11,14,1000,1.45,left,left,20,1,1,0.038,13,22,528,1170,1.17,2.62,27-05-2020,17:21:37
595bf7acc76e6700014d33fc,52,female,1,2,7,Clear_not_profit_side,low_enforcement,10,1,180,left,16,9,1000,1.45,right,right,1,-160,1,0.04,13,22,528,1170,1.17,2.62,27-05-2020,17:21:37
595bf7acc76e6700014d33fc,52,female,1,2,8,Clear_not_profit_side,low_enforcement,10,1,180,left,16,9,1000,1.45,right,right,1,-160,1,0.036,13,22,528,1170,1.17,2.62,27-05-2020,17:21:37
595bf7acc76e6700014d33fc,52,female,1,2,9,Ambigous_left,low_enforcement,10,0,-,left,11,14,1000,1.45,left,right,1,20,0,0.046,13,22,528,1170,1.17,2.62,27-05-2020,17:21:37
595bf7acc76e6700014d33fc,52,female,1,2,10,Ambigous_left,low_enforcement,10,0,-,left,11,14,1000,1.45,left,left,20,1,1,0.038,13,22,528,1170,1.17,2.62,27-05-2020,17:21:37
595bf7acc76e6700014d33fc,52,female,1,2,11,Clear_profit_side,low_enforcement,10,0,-,left,9,16,1000,1.45,left,left,20,1,1,0.041,13,22,528,1170,1.17,2.62,27-05-2020,17:21:37
595bf7acc76e6700014d33fc,52,female,1,2,12,Clear_profit_side,low_enforcement,10,0,-,left,9,16,1000,1.45,left,left,20,1,1,0.033,13,22,528,1170,1.17,2.62,27-05-2020,17:21:37
595bf7acc76e6700014d33fc,52,female,1,2,13,Clear_not_profit_side,low_enforcement,10,0,-,left,16,9,1000,1.45,right,right,1,20,1,0.038,13,22,528,1170,1.17,2.62,27-05-2020,17:21:37
595bf7acc76e6700014d33fc,52,female,1,2,14,Clear_not_profit_side,low_enforcement,10,0,-,left,16,9,1000,1.45,right,right,1,20,1,0.079,13,22,528,1170,1.17,2.62,27-05-2020,17:21:37
595bf7acc76e6700014d33fc,52,female,1,2,15,Ambigous_left,low_enforcement,10,0,-,left,11,14,1000,1.45,left,left,20,1,1,0.035,13,22,528,1170,1.17,2.62,27-05-2020,17:21:37
595bf7acc76e6700014d33fc,52,female,1,2,16,Ambigous_right,low_enforcement,10,0,-,left,14,11,1000,1.45,right,right,1,20,1,0.037,13,22,528,1170,1.17,2.62,27-05-2020,17:21:37
595bf7acc76e6700014d33fc,52,female,1,2,17,Clear_not_profit_side,low_enforcement,10,0,-,left,16,9,1000,1.45,right,right,1,20,1,0.03,13,22,528,1170,1.17,2.62,27-05-2020,17:21:37
595bf7acc76e6700014d33fc,52,female,1,2,18,Clear_not_profit_side,low_enforcement,10,0,-,left,16,9,1000,1.45,right,right,1,20,1,0.025,13,22,528,1170,1.17,2.62,27-05-2020,17:21:37
595bf7acc76e6700014d33fc,52,female,1,2,19,Ambigous_left,low_enforcement,10,0,-,left,11,14,1000,1.45,left,right,1,20,0,0.055,13,22,528,1170,1.17,2.62,27-05-2020,17:21:37
595bf7acc76e6700014d33fc,52,female,1,2,20,Clear_not_profit_side,low_enforcement,10,1,180,left,16,9,1000,1.45,right,right,1,-160,1,0.035,13,22,528,1170,1.17,2.62,27-05-2020,17:21:37
595bf7acc76e6700014d33fc,52,female,1,2,21,Clear_not_profit_side,low_enforcement,10,1,180,left,16,9,1000,1.45,right,right,1,-160,1,0.023,13,22,528,1170,1.17,2.62,27-05-2020,17:21:37
595bf7acc76e6700014d33fc,52,female,1,2,22,Ambigous_left,low_enforcement,10,0,-,left,11,14,1000,1.45,left,right,1,20,0,0.026,13,22,528,1170,1.17,2.62,27-05-2020,17:21:37
595bf7acc76e6700014d33fc,52,female,1,2,23,Ambigous_left,low_enforcement,10,0,-,left,11,14,1000,1.45,left,right,1,20,0,0.041,13,22,528,1170,1.17,2.62,27-05-2020,17:21:37
595bf7acc76e6700014d33fc,52,female,1,2,24,Clear_not_profit_side,low_enforcement,10,0,-,left,16,9,1000,1.45,right,right,1,20,1,0.025,13,22,528,1170,1.17,2.62,27-05-2020,17:21:37
595bf7acc76e6700014d33fc,52,female,1,2,25,Clear_profit_side,low_enforcement,10,1,180,left,9,16,1000,1.45,left,left,20,-179,1,0.083,13,22,528,1170,1.17,2.62,27-05-2020,17:21:37
595bf7acc76e6700014d33fc,52,female,1,2,26,Ambigous_right,low_enforcement,10,0,-,left,14,11,1000,1.45,right,right,1,20,1,0.039,13,22,528,1170,1.17,2.62,27-05-2020,17:21:37
595bf7acc76e6700014d33fc,52,female,1,2,27,Clear_not_profit_side,low_enforcement,10,0,-,left,16,9,1000,1.45,right,right,1,20,1,0.024,13,22,528,1170,1.17,2.62,27-05-2020,17:21:37
595bf7acc76e6700014d33fc,52,female,1,2,28,Clear_not_profit_side,low_enforcement,10,0,-,left,16,9,1000,1.45,right,right,1,20,1,0.045,13,22,528,1170,1.17,2.62,27-05-2020,17:21:37
595bf7acc76e6700014d33fc,52,female,1,2,29,Ambigous_right,low_enforcement,10,0,-,left,14,11,1000,1.45,right,right,1,20,1,0.026,13,22,528,1170,1.17,2.62,27-05-2020,17:21:37
595bf7acc76e6700014d33fc,52,female,1,2,30,Ambigous_left,low_enforcement,10,0,-,left,11,14,1000,1.45,left,left,20,1,1,0.036,13,22,528,1170,1.17,2.62,27-05-2020,17:21:37
595bf7acc76e6700014d33fc,52,female,1,2,31,Clear_not_profit_side,low_enforcement,10,0,-,left,16,9,1000,1.45,right,right,1,20,1,0.028,13,22,528,1170,1.17,2.62,27-05-2020,17:21:37
595bf7acc76e6700014d33fc,52,female,1,2,32,Clear_profit_side,low_enforcement,10,0,-,left,9,16,1000,1.45,left,left,20,1,1,0.068,13,22,528,1170,1.17,2.62,27-05-2020,17:21:37
595bf7acc76e6700014d33fc,52,female,1,2,33,Ambigous_right,low_enforcement,10,0,-,left,14,11,1000,1.45,right,right,1,20,1,0.029,13,22,528,1170,1.17,2.62,27-05-2020,17:21:37
595bf7acc76e6700014d33fc,52,female,1,2,34,Clear_not_profit_side,low_enforcement,10,0,-,left,16,9,1000,1.45,right,right,1,20,1,0.026,13,22,528,1170,1.17,2.62,27-05-2020,17:21:37
595bf7acc76e6700014d33fc,52,female,1,2,35,Clear_profit_side,low_enforcement,10,1,180,left,9,16,1000,1.45,left,left,20,-179,1,0.065,13,22,528,1170,1.17,2.62,27-05-2020,17:21:37
595bf7acc76e6700014d33fc,52,female,1,2,36,Clear_not_profit_side,low_enforcement,10,1,180,left,16,9,1000,1.45,right,right,1,-160,1,0.03,13,22,528,1170,1.17,2.62,27-05-2020,17:21:37
595bf7acc76e6700014d33fc,52,female,1,2,37,Ambigous_right,low_enforcement,10,0,-,left,14,11,1000,1.45,right,right,1,20,1,0.031,13,22,528,1170,1.17,2.62,27-05-2020,17:21:37
595bf7acc76e6700014d33fc,52,female,1,2,38,Clear_profit_side,low_enforcement,10,0,-,left,9,16,1000,1.45,left,left,20,1,1,0.047,13,22,528,1170,1.17,2.62,27-05-2020,17:21:37
595bf7acc76e6700014d33fc,52,female,1,2,39,Ambigous_right,low_enforcement,10,0,-,left,14,11,1000,1.45,right,right,1,20,1,0.067,13,22,528,1170,1.17,2.62,27-05-2020,17:21:37
595bf7acc76e6700014d33fc,52,female,1,2,40,Ambigous_right,low_enforcement,10,0,-,left,14,11,1000,1.45,right,right,1,20,1,0.047,13,22,528,1170,1.17,2.62,27-05-2020,17:21:37
595bf7acc76e6700014d33fc,52,female,1,2,41,Ambigous_right,low_enforcement,10,0,-,left,14,11,1000,1.45,right,right,1,20,1,0.029,13,22,528,1170,1.17,2.62,27-05-2020,17:21:37
595bf7acc76e6700014d33fc,52,female,1,2,42,Clear_not_profit_side,low_enforcement,10,0,-,left,16,9,1000,1.45,right,right,1,20,1,0.024,13,22,528,1170,1.17,2.62,27-05-2020,17:21:37
595bf7acc76e6700014d33fc,52,female,1,2,43,Clear_profit_side,low_enforcement,10,0,-,left,9,16,1000,1.45,left,left,20,1,1,0.058,13,22,528,1170,1.17,2.62,27-05-2020,17:21:37
595bf7acc76e6700014d33fc,52,female,1,2,44,Ambigous_left,low_enforcement,10,0,-,left,11,14,1000,1.45,left,left,20,1,1,0.046,13,22,528,1170,1.17,2.62,27-05-2020,17:21:37
595bf7acc76e6700014d33fc,52,female,1,2,45,Ambigous_left,low_enforcement,10,0,-,left,11,14,1000,1.45,left,left,20,1,1,0.021,13,22,528,1170,1.17,2.62,27-05-2020,17:21:37
595bf7acc76e6700014d33fc,52,female,1,2,46,Clear_not_profit_side,low_enforcement,10,0,-,left,16,9,1000,1.45,right,right,1,20,1,0.037,13,22,528,1170,1.17,2.62,27-05-2020,17:21:37
595bf7acc76e6700014d33fc,52,female,1,2,47,Ambigous_right,low_enforcement,10,1,180,left,14,11,1000,1.45,right,right,1,-160,1,0.028,13,22,528,1170,1.17,2.62,27-05-2020,17:21:37
595bf7acc76e6700014d33fc,52,female,1,2,48,Ambigous_left,low_enforcement,10,0,-,left,11,14,1000,1.45,left,right,1,20,0,0.037,13,22,528,1170,1.17,2.62,27-05-2020,17:21:37
595bf7acc76e6700014d33fc,52,female,1,2,49,Ambigous_left,low_enforcement,10,1,180,left,11,14,1000,1.45,left,left,20,-179,1,0.098,13,22,528,1170,1.17,2.62,27-05-2020,17:21:37
595bf7acc76e6700014d33fc,52,female,1,2,50,Clear_profit_side,low_enforcement,10,0,-,left,9,16,1000,1.45,left,left,20,1,1,0.026,13,22,528,1170,1.17,2.62,27-05-2020,17:21:37
595bf7acc76e6700014d33fc,52,female,1,2,51,Ambigous_right,low_enforcement,10,0,-,left,14,11,1000,1.45,right,right,1,20,1,0.039,13,22,528,1170,1.17,2.62,27-05-2020,17:21:37
595bf7acc76e6700014d33fc,52,female,1,2,52,Clear_not_profit_side,low_enforcement,10,1,180,left,16,9,1000,1.45,right,right,1,-160,1,0.027,13,22,528,1170,1.17,2.62,27-05-2020,17:21:37
595bf7acc76e6700014d33fc,52,female,1,2,53,Ambigous_right,low_enforcement,10,0,-,left,14,11,1000,1.45,right,right,1,20,1,0.033,13,22,528,1170,1.17,2.62,27-05-2020,17:21:37
595bf7acc76e6700014d33fc,52,female,1,2,54,Clear_not_profit_side,low_enforcement,10,0,-,left,16,9,1000,1.45,right,right,1,20,1,0.032,13,22,528,1170,1.17,2.62,27-05-2020,17:21:37
595bf7acc76e6700014d33fc,52,female,1,2,55,Ambigous_left,low_enforcement,10,0,-,left,11,14,1000,1.45,left,left,20,1,1,0.029,13,22,528,1170,1.17,2.62,27-05-2020,17:21:37
