user_id,age,gender,attention,block_number,trial_number,trial_type,conditions,p_inspection,inspection,fine_size,profitable_side,points_right,points_left,exchange_ratio,basic_payment,true_side,choice,trial_payoff,alternative_payoff,choice_correct,rt_choice,block_errors,final_errors,block_payoff,final_payoff,bonus,final_payment,date,time,error
56100d727ffc8a0005811338,43,female,1,1,3,Ambigous_left,no_enforcement2,0,0,-,left,11,14,1000,1.45,left,left,2,1,1,0.285,6,13,141,277,0.27699999999999997,1.727,27-05-2020,17:26:49,0
56100d727ffc8a0005811338,43,female,1,1,4,Ambigous_left,no_enforcement2,0,0,-,left,11,14,1000,1.45,left,left,2,1,1,0.34700000000000003,6,13,141,277,0.27699999999999997,1.727,27-05-2020,17:26:49,0
56100d727ffc8a0005811338,43,female,1,1,6,Ambigous_left,no_enforcement2,0,0,-,left,11,14,1000,1.45,left,left,2,1,1,0.268,6,13,141,277,0.27699999999999997,1.727,27-05-2020,17:26:49,0
56100d727ffc8a0005811338,43,female,1,1,12,Clear_profit_side,no_enforcement2,0,0,-,left,9,16,1000,1.45,left,left,2,1,1,0.318,6,13,141,277,0.27699999999999997,1.727,27-05-2020,17:26:49,0
56100d727ffc8a0005811338,43,female,1,1,15,Ambigous_left,no_enforcement2,0,0,-,left,11,14,1000,1.45,left,left,2,1,1,0.28,6,13,141,277,0.27699999999999997,1.727,27-05-2020,17:26:49,0
56100d727ffc8a0005811338,43,female,1,1,16,Ambigous_left,no_enforcement2,0,0,-,left,11,14,1000,1.45,left,left,2,1,1,0.221,6,13,141,277,0.27699999999999997,1.727,27-05-2020,17:26:49,0
56100d727ffc8a0005811338,43,female,1,1,25,Clear_profit_side,no_enforcement2,0,0,-,left,9,16,1000,1.45,left,left,2,1,1,0.25,6,13,141,277,0.27699999999999997,1.727,27-05-2020,17:26:49,0
56100d727ffc8a0005811338,43,female,1,1,27,Clear_profit_side,no_enforcement2,0,0,-,left,9,16,1000,1.45,left,left,2,1,1,0.257,6,13,141,277,0.27699999999999997,1.727,27-05-2020,17:26:49,0
56100d727ffc8a0005811338,43,female,1,1,30,Ambigous_left,no_enforcement2,0,0,-,left,11,14,1000,1.45,left,left,2,1,1,0.22,6,13,141,277,0.27699999999999997,1.727,27-05-2020,17:26:49,0
56100d727ffc8a0005811338,43,female,1,1,31,Clear_profit_side,no_enforcement2,0,0,-,left,9,16,1000,1.45,left,left,2,1,1,0.193,6,13,141,277,0.27699999999999997,1.727,27-05-2020,17:26:49,0
56100d727ffc8a0005811338,43,female,1,1,34,Ambigous_left,no_enforcement2,0,0,-,left,11,14,1000,1.45,left,left,2,1,1,0.247,6,13,141,277,0.27699999999999997,1.727,27-05-2020,17:26:49,0
56100d727ffc8a0005811338,43,female,1,1,36,Clear_profit_side,no_enforcement2,0,0,-,left,9,16,1000,1.45,left,left,2,1,1,0.22399999999999998,6,13,141,277,0.27699999999999997,1.727,27-05-2020,17:26:49,0
56100d727ffc8a0005811338,43,female,1,1,41,Clear_profit_side,no_enforcement2,0,0,-,left,9,16,1000,1.45,left,left,2,1,1,0.22,6,13,141,277,0.27699999999999997,1.727,27-05-2020,17:26:49,0
56100d727ffc8a0005811338,43,female,1,1,43,Ambigous_left,no_enforcement2,0,0,-,left,11,14,1000,1.45,left,right,1,2,0,0.7020000000000001,6,13,141,277,0.27699999999999997,1.727,27-05-2020,17:26:49,1
56100d727ffc8a0005811338,43,female,1,1,44,Clear_profit_side,no_enforcement2,0,0,-,left,9,16,1000,1.45,left,left,2,1,1,0.24600000000000002,6,13,141,277,0.27699999999999997,1.727,27-05-2020,17:26:49,0
56100d727ffc8a0005811338,43,female,1,1,48,Ambigous_left,no_enforcement2,0,0,-,left,11,14,1000,1.45,left,left,2,1,1,0.24600000000000002,6,13,141,277,0.27699999999999997,1.727,27-05-2020,17:26:49,0
56100d727ffc8a0005811338,43,female,1,1,50,Ambigous_left,no_enforcement2,0,0,-,left,11,14,1000,1.45,left,left,2,1,1,0.264,6,13,141,277,0.27699999999999997,1.727,27-05-2020,17:26:49,0
56100d727ffc8a0005811338,43,female,1,1,52,Clear_profit_side,no_enforcement2,0,0,-,left,9,16,1000,1.45,left,left,2,1,1,0.243,6,13,141,277,0.27699999999999997,1.727,27-05-2020,17:26:49,0
56100d727ffc8a0005811338,43,female,1,1,53,Ambigous_left,no_enforcement2,0,0,-,left,11,14,1000,1.45,left,left,2,1,1,0.16,6,13,141,277,0.27699999999999997,1.727,27-05-2020,17:26:49,0
56100d727ffc8a0005811338,43,female,1,1,54,Ambigous_left,no_enforcement2,0,0,-,left,11,14,1000,1.45,left,left,2,1,1,0.209,6,13,141,277,0.27699999999999997,1.727,27-05-2020,17:26:49,0
56100d727ffc8a0005811338,43,female,1,1,55,Clear_profit_side,no_enforcement2,0,0,-,left,9,16,1000,1.45,left,left,2,1,1,0.16899999999999998,6,13,141,277,0.27699999999999997,1.727,27-05-2020,17:26:49,0
56100d727ffc8a0005811338,43,female,1,1,57,Ambigous_left,no_enforcement2,0,0,-,left,11,14,1000,1.45,left,left,2,1,1,0.228,6,13,141,277,0.27699999999999997,1.727,27-05-2020,17:26:49,0
56100d727ffc8a0005811338,43,female,1,1,59,Clear_profit_side,no_enforcement2,0,0,-,left,9,16,1000,1.45,left,left,2,1,1,0.25,6,13,141,277,0.27699999999999997,1.727,27-05-2020,17:26:49,0
56100d727ffc8a0005811338,43,female,1,1,61,Clear_profit_side,no_enforcement2,0,0,-,left,9,16,1000,1.45,left,left,2,1,1,0.226,6,13,141,277,0.27699999999999997,1.727,27-05-2020,17:26:49,0
56100d727ffc8a0005811338,43,female,1,1,63,Ambigous_left,no_enforcement2,0,0,-,left,11,14,1000,1.45,left,left,2,1,1,0.23,6,13,141,277,0.27699999999999997,1.727,27-05-2020,17:26:49,0
56100d727ffc8a0005811338,43,female,1,1,67,Ambigous_left,no_enforcement2,0,0,-,left,11,14,1000,1.45,left,right,1,2,0,0.64,6,13,141,277,0.27699999999999997,1.727,27-05-2020,17:26:49,1
56100d727ffc8a0005811338,43,female,1,1,71,Ambigous_left,no_enforcement2,0,0,-,left,11,14,1000,1.45,left,left,2,1,1,0.23,6,13,141,277,0.27699999999999997,1.727,27-05-2020,17:26:49,0
56100d727ffc8a0005811338,43,female,1,1,73,Ambigous_left,no_enforcement2,0,0,-,left,11,14,1000,1.45,left,left,2,1,1,0.268,6,13,141,277,0.27699999999999997,1.727,27-05-2020,17:26:49,0
56100d727ffc8a0005811338,43,female,1,1,74,Ambigous_left,no_enforcement2,0,0,-,left,11,14,1000,1.45,left,left,2,1,1,0.16399999999999998,6,13,141,277,0.27699999999999997,1.727,27-05-2020,17:26:49,0
56100d727ffc8a0005811338,43,female,1,1,79,Ambigous_left,no_enforcement2,0,0,-,left,11,14,1000,1.45,left,left,2,1,1,0.221,6,13,141,277,0.27699999999999997,1.727,27-05-2020,17:26:49,0
56100d727ffc8a0005811338,43,female,1,1,80,Ambigous_left,no_enforcement2,0,0,-,left,11,14,1000,1.45,left,right,1,2,0,0.209,6,13,141,277,0.27699999999999997,1.727,27-05-2020,17:26:49,1
56100d727ffc8a0005811338,43,female,1,1,85,Ambigous_left,no_enforcement2,0,0,-,left,11,14,1000,1.45,left,left,2,1,1,0.418,6,13,141,277,0.27699999999999997,1.727,27-05-2020,17:26:49,0
56100d727ffc8a0005811338,43,female,1,1,86,Clear_profit_side,no_enforcement2,0,0,-,left,9,16,1000,1.45,left,left,2,1,1,0.242,6,13,141,277,0.27699999999999997,1.727,27-05-2020,17:26:49,0
56100d727ffc8a0005811338,43,female,1,1,88,Ambigous_left,no_enforcement2,0,0,-,left,11,14,1000,1.45,left,left,2,1,1,0.25,6,13,141,277,0.27699999999999997,1.727,27-05-2020,17:26:49,0
56100d727ffc8a0005811338,43,female,1,1,89,Clear_profit_side,no_enforcement2,0,0,-,left,9,16,1000,1.45,left,left,2,1,1,0.165,6,13,141,277,0.27699999999999997,1.727,27-05-2020,17:26:49,0
56100d727ffc8a0005811338,43,female,1,1,90,Ambigous_left,no_enforcement2,0,0,-,left,11,14,1000,1.45,left,left,2,1,1,0.16,6,13,141,277,0.27699999999999997,1.727,27-05-2020,17:26:49,0
56100d727ffc8a0005811338,43,female,1,1,92,Ambigous_left,no_enforcement2,0,0,-,left,11,14,1000,1.45,left,left,2,1,1,0.223,6,13,141,277,0.27699999999999997,1.727,27-05-2020,17:26:49,0
56100d727ffc8a0005811338,43,female,1,1,94,Clear_profit_side,no_enforcement2,0,0,-,left,9,16,1000,1.45,left,left,2,1,1,0.22899999999999998,6,13,141,277,0.27699999999999997,1.727,27-05-2020,17:26:49,0
56100d727ffc8a0005811338,43,female,1,1,95,Clear_profit_side,no_enforcement2,0,0,-,left,9,16,1000,1.45,left,left,2,1,1,0.23800000000000002,6,13,141,277,0.27699999999999997,1.727,27-05-2020,17:26:49,0
56100d727ffc8a0005811338,43,female,1,1,97,Clear_profit_side,no_enforcement2,0,0,-,left,9,16,1000,1.45,left,left,2,1,1,0.226,6,13,141,277,0.27699999999999997,1.727,27-05-2020,17:26:49,0
56100d727ffc8a0005811338,43,female,1,1,100,Ambigous_left,no_enforcement2,0,0,-,left,11,14,1000,1.45,left,left,2,1,1,0.222,6,13,141,277,0.27699999999999997,1.727,27-05-2020,17:26:49,0
56100d727ffc8a0005811338,43,female,1,2,1,Ambigous_left,no_enforcement2,0,0,-,left,11,14,1000,1.45,left,left,2,1,1,0.252,7,13,136,277,0.27699999999999997,1.727,27-05-2020,17:26:49,0
56100d727ffc8a0005811338,43,female,1,2,2,Clear_profit_side,no_enforcement2,0,0,-,left,9,16,1000,1.45,left,left,2,1,1,0.22399999999999998,7,13,136,277,0.27699999999999997,1.727,27-05-2020,17:26:49,0
56100d727ffc8a0005811338,43,female,1,2,5,Clear_profit_side,no_enforcement2,0,0,-,left,9,16,1000,1.45,left,left,2,1,1,0.235,7,13,136,277,0.27699999999999997,1.727,27-05-2020,17:26:49,0
56100d727ffc8a0005811338,43,female,1,2,9,Clear_profit_side,no_enforcement2,0,0,-,left,9,16,1000,1.45,left,left,2,1,1,0.207,7,13,136,277,0.27699999999999997,1.727,27-05-2020,17:26:49,0
56100d727ffc8a0005811338,43,female,1,2,10,Ambigous_left,no_enforcement2,0,0,-,left,11,14,1000,1.45,left,left,2,1,1,0.16,7,13,136,277,0.27699999999999997,1.727,27-05-2020,17:26:49,0
56100d727ffc8a0005811338,43,female,1,2,12,Ambigous_left,no_enforcement2,0,0,-,left,11,14,1000,1.45,left,left,2,1,1,0.23800000000000002,7,13,136,277,0.27699999999999997,1.727,27-05-2020,17:26:49,0
56100d727ffc8a0005811338,43,female,1,2,15,Ambigous_left,no_enforcement2,0,0,-,left,11,14,1000,1.45,left,left,2,1,1,0.22399999999999998,7,13,136,277,0.27699999999999997,1.727,27-05-2020,17:26:49,0
56100d727ffc8a0005811338,43,female,1,2,20,Ambigous_left,no_enforcement2,0,0,-,left,11,14,1000,1.45,left,left,2,1,1,0.289,7,13,136,277,0.27699999999999997,1.727,27-05-2020,17:26:49,0
56100d727ffc8a0005811338,43,female,1,2,21,Clear_profit_side,no_enforcement2,0,0,-,left,9,16,1000,1.45,left,right,1,2,0,0.21899999999999997,7,13,136,277,0.27699999999999997,1.727,27-05-2020,17:26:49,1
56100d727ffc8a0005811338,43,female,1,2,25,Ambigous_left,no_enforcement2,0,0,-,left,11,14,1000,1.45,left,left,2,1,1,0.265,7,13,136,277,0.27699999999999997,1.727,27-05-2020,17:26:49,0
56100d727ffc8a0005811338,43,female,1,2,27,Ambigous_left,no_enforcement2,0,0,-,left,11,14,1000,1.45,left,left,2,1,1,0.21899999999999997,7,13,136,277,0.27699999999999997,1.727,27-05-2020,17:26:49,0
56100d727ffc8a0005811338,43,female,1,2,30,Clear_profit_side,no_enforcement2,0,0,-,left,9,16,1000,1.45,left,left,2,1,1,0.23600000000000002,7,13,136,277,0.27699999999999997,1.727,27-05-2020,17:26:49,0
56100d727ffc8a0005811338,43,female,1,2,31,Clear_profit_side,no_enforcement2,0,0,-,left,9,16,1000,1.45,left,left,2,1,1,0.24100000000000002,7,13,136,277,0.27699999999999997,1.727,27-05-2020,17:26:49,0
56100d727ffc8a0005811338,43,female,1,2,33,Clear_profit_side,no_enforcement2,0,0,-,left,9,16,1000,1.45,left,left,2,1,1,0.21600000000000003,7,13,136,277,0.27699999999999997,1.727,27-05-2020,17:26:49,0
56100d727ffc8a0005811338,43,female,1,2,34,Ambigous_left,no_enforcement2,0,0,-,left,11,14,1000,1.45,left,left,2,1,1,0.21,7,13,136,277,0.27699999999999997,1.727,27-05-2020,17:26:49,0
56100d727ffc8a0005811338,43,female,1,2,35,Clear_profit_side,no_enforcement2,0,0,-,left,9,16,1000,1.45,left,left,2,1,1,0.17800000000000002,7,13,136,277,0.27699999999999997,1.727,27-05-2020,17:26:49,0
56100d727ffc8a0005811338,43,female,1,2,41,Clear_profit_side,no_enforcement2,0,0,-,left,9,16,1000,1.45,left,left,2,1,1,0.23399999999999999,7,13,136,277,0.27699999999999997,1.727,27-05-2020,17:26:49,0
56100d727ffc8a0005811338,43,female,1,2,42,Clear_profit_side,no_enforcement2,0,0,-,left,9,16,1000,1.45,left,left,2,1,1,0.22699999999999998,7,13,136,277,0.27699999999999997,1.727,27-05-2020,17:26:49,0
56100d727ffc8a0005811338,43,female,1,2,47,Ambigous_left,no_enforcement2,0,0,-,left,11,14,1000,1.45,left,left,2,1,1,0.196,7,13,136,277,0.27699999999999997,1.727,27-05-2020,17:26:49,0
56100d727ffc8a0005811338,43,female,1,2,48,Ambigous_left,no_enforcement2,0,0,-,left,11,14,1000,1.45,left,right,1,2,0,0.366,7,13,136,277,0.27699999999999997,1.727,27-05-2020,17:26:49,1
56100d727ffc8a0005811338,43,female,1,2,49,Ambigous_left,no_enforcement2,0,0,-,left,11,14,1000,1.45,left,left,2,1,1,0.191,7,13,136,277,0.27699999999999997,1.727,27-05-2020,17:26:49,0
56100d727ffc8a0005811338,43,female,1,2,52,Ambigous_left,no_enforcement2,0,0,-,left,11,14,1000,1.45,left,left,2,1,1,0.20600000000000002,7,13,136,277,0.27699999999999997,1.727,27-05-2020,17:26:49,0
56100d727ffc8a0005811338,43,female,1,2,53,Ambigous_left,no_enforcement2,0,0,-,left,11,14,1000,1.45,left,left,2,1,1,0.182,7,13,136,277,0.27699999999999997,1.727,27-05-2020,17:26:49,0
56100d727ffc8a0005811338,43,female,1,2,57,Clear_profit_side,no_enforcement2,0,0,-,left,9,16,1000,1.45,left,left,2,1,1,0.207,7,13,136,277,0.27699999999999997,1.727,27-05-2020,17:26:49,0
56100d727ffc8a0005811338,43,female,1,2,59,Ambigous_left,no_enforcement2,0,0,-,left,11,14,1000,1.45,left,left,2,1,1,0.191,7,13,136,277,0.27699999999999997,1.727,27-05-2020,17:26:49,0
56100d727ffc8a0005811338,43,female,1,2,68,Ambigous_left,no_enforcement2,0,0,-,left,11,14,1000,1.45,left,right,1,2,0,0.19899999999999998,7,13,136,277,0.27699999999999997,1.727,27-05-2020,17:26:49,1
56100d727ffc8a0005811338,43,female,1,2,69,Ambigous_left,no_enforcement2,0,0,-,left,11,14,1000,1.45,left,left,2,1,1,0.205,7,13,136,277,0.27699999999999997,1.727,27-05-2020,17:26:49,0
56100d727ffc8a0005811338,43,female,1,2,71,Ambigous_left,no_enforcement2,0,0,-,left,11,14,1000,1.45,left,left,2,1,1,0.205,7,13,136,277,0.27699999999999997,1.727,27-05-2020,17:26:49,0
56100d727ffc8a0005811338,43,female,1,2,74,Ambigous_left,no_enforcement2,0,0,-,left,11,14,1000,1.45,left,left,2,1,1,0.209,7,13,136,277,0.27699999999999997,1.727,27-05-2020,17:26:49,0
56100d727ffc8a0005811338,43,female,1,2,77,Ambigous_left,no_enforcement2,0,0,-,left,11,14,1000,1.45,left,right,1,2,0,0.14,7,13,136,277,0.27699999999999997,1.727,27-05-2020,17:26:49,1
56100d727ffc8a0005811338,43,female,1,2,78,Clear_profit_side,no_enforcement2,0,0,-,left,9,16,1000,1.45,left,left,2,1,1,0.19899999999999998,7,13,136,277,0.27699999999999997,1.727,27-05-2020,17:26:49,0
56100d727ffc8a0005811338,43,female,1,2,84,Ambigous_left,no_enforcement2,0,0,-,left,11,14,1000,1.45,left,left,2,1,1,0.21100000000000002,7,13,136,277,0.27699999999999997,1.727,27-05-2020,17:26:49,0
56100d727ffc8a0005811338,43,female,1,2,85,Ambigous_left,no_enforcement2,0,0,-,left,11,14,1000,1.45,left,left,2,1,1,0.21899999999999997,7,13,136,277,0.27699999999999997,1.727,27-05-2020,17:26:49,0
56100d727ffc8a0005811338,43,female,1,2,88,Clear_profit_side,no_enforcement2,0,0,-,left,9,16,1000,1.45,left,left,2,1,1,0.223,7,13,136,277,0.27699999999999997,1.727,27-05-2020,17:26:49,0
56100d727ffc8a0005811338,43,female,1,2,89,Ambigous_left,no_enforcement2,0,0,-,left,11,14,1000,1.45,left,left,2,1,1,0.226,7,13,136,277,0.27699999999999997,1.727,27-05-2020,17:26:49,0
56100d727ffc8a0005811338,43,female,1,2,90,Clear_profit_side,no_enforcement2,0,0,-,left,9,16,1000,1.45,left,left,2,1,1,0.228,7,13,136,277,0.27699999999999997,1.727,27-05-2020,17:26:49,0
56100d727ffc8a0005811338,43,female,1,2,92,Ambigous_left,no_enforcement2,0,0,-,left,11,14,1000,1.45,left,right,1,2,0,0.379,7,13,136,277,0.27699999999999997,1.727,27-05-2020,17:26:49,1
56100d727ffc8a0005811338,43,female,1,2,94,Clear_profit_side,no_enforcement2,0,0,-,left,9,16,1000,1.45,left,left,2,1,1,0.213,7,13,136,277,0.27699999999999997,1.727,27-05-2020,17:26:49,0
56100d727ffc8a0005811338,43,female,1,2,96,Ambigous_left,no_enforcement2,0,0,-,left,11,14,1000,1.45,left,left,2,1,1,0.20199999999999999,7,13,136,277,0.27699999999999997,1.727,27-05-2020,17:26:49,0
56100d727ffc8a0005811338,43,female,1,2,99,Ambigous_left,no_enforcement2,0,0,-,left,11,14,1000,1.45,left,right,1,2,0,0.221,7,13,136,277,0.27699999999999997,1.727,27-05-2020,17:26:49,1
56100d727ffc8a0005811338,43,female,1,2,100,Clear_profit_side,no_enforcement2,0,0,-,left,9,16,1000,1.45,left,left,2,1,1,0.282,7,13,136,277,0.27699999999999997,1.727,27-05-2020,17:26:49,0
578f9f52eeaf6d00018d4f20,30,male,1,1,2,Clear_profit_side,no_enforcement2,0,0,-,left,9,16,1000,1.45,left,left,2,1,1,0.113,59,118,200,398,0.39799999999999996,1.848,27-05-2020,18:26:20,0
578f9f52eeaf6d00018d4f20,30,male,1,1,4,Ambigous_left,no_enforcement2,0,0,-,left,11,14,1000,1.45,left,left,2,1,1,0.019,59,118,200,398,0.39799999999999996,1.848,27-05-2020,18:26:20,0
578f9f52eeaf6d00018d4f20,30,male,1,1,6,Ambigous_left,no_enforcement2,0,0,-,left,11,14,1000,1.45,left,left,2,1,1,0.085,59,118,200,398,0.39799999999999996,1.848,27-05-2020,18:26:20,0
578f9f52eeaf6d00018d4f20,30,male,1,1,12,Ambigous_left,no_enforcement2,0,0,-,left,11,14,1000,1.45,left,left,2,1,1,0.087,59,118,200,398,0.39799999999999996,1.848,27-05-2020,18:26:20,0
578f9f52eeaf6d00018d4f20,30,male,1,1,15,Clear_profit_side,no_enforcement2,0,0,-,left,9,16,1000,1.45,left,left,2,1,1,3.5039999999999996,59,118,200,398,0.39799999999999996,1.848,27-05-2020,18:26:20,0
578f9f52eeaf6d00018d4f20,30,male,1,1,17,Clear_profit_side,no_enforcement2,0,0,-,left,9,16,1000,1.45,left,left,2,1,1,0.038,59,118,200,398,0.39799999999999996,1.848,27-05-2020,18:26:20,0
578f9f52eeaf6d00018d4f20,30,male,1,1,18,Clear_profit_side,no_enforcement2,0,0,-,left,9,16,1000,1.45,left,left,2,1,1,0.053,59,118,200,398,0.39799999999999996,1.848,27-05-2020,18:26:20,0
578f9f52eeaf6d00018d4f20,30,male,1,1,24,Ambigous_left,no_enforcement2,0,0,-,left,11,14,1000,1.45,left,left,2,1,1,0.039,59,118,200,398,0.39799999999999996,1.848,27-05-2020,18:26:20,0
578f9f52eeaf6d00018d4f20,30,male,1,1,26,Ambigous_left,no_enforcement2,0,0,-,left,11,14,1000,1.45,left,left,2,1,1,0.04,59,118,200,398,0.39799999999999996,1.848,27-05-2020,18:26:20,0
578f9f52eeaf6d00018d4f20,30,male,1,1,30,Ambigous_left,no_enforcement2,0,0,-,left,11,14,1000,1.45,left,left,2,1,1,0.040999999999999995,59,118,200,398,0.39799999999999996,1.848,27-05-2020,18:26:20,0
578f9f52eeaf6d00018d4f20,30,male,1,1,31,Ambigous_left,no_enforcement2,0,0,-,left,11,14,1000,1.45,left,left,2,1,1,0.038,59,118,200,398,0.39799999999999996,1.848,27-05-2020,18:26:20,0
578f9f52eeaf6d00018d4f20,30,male,1,1,32,Ambigous_left,no_enforcement2,0,0,-,left,11,14,1000,1.45,left,left,2,1,1,0.023,59,118,200,398,0.39799999999999996,1.848,27-05-2020,18:26:20,0
578f9f52eeaf6d00018d4f20,30,male,1,1,35,Clear_profit_side,no_enforcement2,0,0,-,left,9,16,1000,1.45,left,left,2,1,1,0.040999999999999995,59,118,200,398,0.39799999999999996,1.848,27-05-2020,18:26:20,0
578f9f52eeaf6d00018d4f20,30,male,1,1,36,Clear_profit_side,no_enforcement2,0,0,-,left,9,16,1000,1.45,left,left,2,1,1,0.026000000000000002,59,118,200,398,0.39799999999999996,1.848,27-05-2020,18:26:20,0
578f9f52eeaf6d00018d4f20,30,male,1,1,37,Ambigous_left,no_enforcement2,0,0,-,left,11,14,1000,1.45,left,left,2,1,1,0.038,59,118,200,398,0.39799999999999996,1.848,27-05-2020,18:26:20,0
578f9f52eeaf6d00018d4f20,30,male,1,1,38,Ambigous_left,no_enforcement2,0,0,-,left,11,14,1000,1.45,left,left,2,1,1,0.071,59,118,200,398,0.39799999999999996,1.848,27-05-2020,18:26:20,0
578f9f52eeaf6d00018d4f20,30,male,1,1,40,Ambigous_left,no_enforcement2,0,0,-,left,11,14,1000,1.45,left,left,2,1,1,0.051,59,118,200,398,0.39799999999999996,1.848,27-05-2020,18:26:20,0
578f9f52eeaf6d00018d4f20,30,male,1,1,49,Ambigous_left,no_enforcement2,0,0,-,left,11,14,1000,1.45,left,left,2,1,1,0.009000000000000001,59,118,200,398,0.39799999999999996,1.848,27-05-2020,18:26:20,0
578f9f52eeaf6d00018d4f20,30,male,1,1,51,Clear_profit_side,no_enforcement2,0,0,-,left,9,16,1000,1.45,left,left,2,1,1,0.009000000000000001,59,118,200,398,0.39799999999999996,1.848,27-05-2020,18:26:20,0
578f9f52eeaf6d00018d4f20,30,male,1,1,53,Ambigous_left,no_enforcement2,0,0,-,left,11,14,1000,1.45,left,left,2,1,1,0.004,59,118,200,398,0.39799999999999996,1.848,27-05-2020,18:26:20,0
578f9f52eeaf6d00018d4f20,30,male,1,1,55,Ambigous_left,no_enforcement2,0,0,-,left,11,14,1000,1.45,left,left,2,1,1,0.004,59,118,200,398,0.39799999999999996,1.848,27-05-2020,18:26:20,0
578f9f52eeaf6d00018d4f20,30,male,1,1,57,Ambigous_left,no_enforcement2,0,0,-,left,11,14,1000,1.45,left,left,2,1,1,0.109,59,118,200,398,0.39799999999999996,1.848,27-05-2020,18:26:20,0
578f9f52eeaf6d00018d4f20,30,male,1,1,59,Clear_profit_side,no_enforcement2,0,0,-,left,9,16,1000,1.45,left,left,2,1,1,0.064,59,118,200,398,0.39799999999999996,1.848,27-05-2020,18:26:20,0
578f9f52eeaf6d00018d4f20,30,male,1,1,60,Ambigous_left,no_enforcement2,0,0,-,left,11,14,1000,1.45,left,left,2,1,1,0.043,59,118,200,398,0.39799999999999996,1.848,27-05-2020,18:26:20,0
578f9f52eeaf6d00018d4f20,30,male,1,1,63,Ambigous_left,no_enforcement2,0,0,-,left,11,14,1000,1.45,left,left,2,1,1,0.027999999999999997,59,118,200,398,0.39799999999999996,1.848,27-05-2020,18:26:20,0
578f9f52eeaf6d00018d4f20,30,male,1,1,70,Clear_profit_side,no_enforcement2,0,0,-,left,9,16,1000,1.45,left,left,2,1,1,0.129,59,118,200,398,0.39799999999999996,1.848,27-05-2020,18:26:20,0
578f9f52eeaf6d00018d4f20,30,male,1,1,71,Ambigous_left,no_enforcement2,0,0,-,left,11,14,1000,1.45,left,left,2,1,1,0.039,59,118,200,398,0.39799999999999996,1.848,27-05-2020,18:26:20,0
578f9f52eeaf6d00018d4f20,30,male,1,1,73,Clear_profit_side,no_enforcement2,0,0,-,left,9,16,1000,1.45,left,left,2,1,1,0.109,59,118,200,398,0.39799999999999996,1.848,27-05-2020,18:26:20,0
578f9f52eeaf6d00018d4f20,30,male,1,1,75,Ambigous_left,no_enforcement2,0,0,-,left,11,14,1000,1.45,left,left,2,1,1,0.099,59,118,200,398,0.39799999999999996,1.848,27-05-2020,18:26:20,0
578f9f52eeaf6d00018d4f20,30,male,1,1,80,Clear_profit_side,no_enforcement2,0,0,-,left,9,16,1000,1.45,left,left,2,1,1,0.048,59,118,200,398,0.39799999999999996,1.848,27-05-2020,18:26:20,0
578f9f52eeaf6d00018d4f20,30,male,1,1,81,Ambigous_left,no_enforcement2,0,0,-,left,11,14,1000,1.45,left,left,2,1,1,0.059000000000000004,59,118,200,398,0.39799999999999996,1.848,27-05-2020,18:26:20,0
578f9f52eeaf6d00018d4f20,30,male,1,1,82,Ambigous_left,no_enforcement2,0,0,-,left,11,14,1000,1.45,left,left,2,1,1,0.038,59,118,200,398,0.39799999999999996,1.848,27-05-2020,18:26:20,0
578f9f52eeaf6d00018d4f20,30,male,1,1,84,Ambigous_left,no_enforcement2,0,0,-,left,11,14,1000,1.45,left,left,2,1,1,0.048,59,118,200,398,0.39799999999999996,1.848,27-05-2020,18:26:20,0
578f9f52eeaf6d00018d4f20,30,male,1,1,86,Ambigous_left,no_enforcement2,0,0,-,left,11,14,1000,1.45,left,left,2,1,1,0.055,59,118,200,398,0.39799999999999996,1.848,27-05-2020,18:26:20,0
578f9f52eeaf6d00018d4f20,30,male,1,1,88,Ambigous_left,no_enforcement2,0,0,-,left,11,14,1000,1.45,left,left,2,1,1,0.07400000000000001,59,118,200,398,0.39799999999999996,1.848,27-05-2020,18:26:20,0
578f9f52eeaf6d00018d4f20,30,male,1,1,90,Clear_profit_side,no_enforcement2,0,0,-,left,9,16,1000,1.45,left,left,2,1,1,0.045,59,118,200,398,0.39799999999999996,1.848,27-05-2020,18:26:20,0
578f9f52eeaf6d00018d4f20,30,male,1,1,93,Clear_profit_side,no_enforcement2,0,0,-,left,9,16,1000,1.45,left,left,2,1,1,0.046,59,118,200,398,0.39799999999999996,1.848,27-05-2020,18:26:20,0
578f9f52eeaf6d00018d4f20,30,male,1,1,96,Clear_profit_side,no_enforcement2,0,0,-,left,9,16,1000,1.45,left,left,2,1,1,0.017,59,118,200,398,0.39799999999999996,1.848,27-05-2020,18:26:20,0
578f9f52eeaf6d00018d4f20,30,male,1,1,97,Ambigous_left,no_enforcement2,0,0,-,left,11,14,1000,1.45,left,left,2,1,1,0.055,59,118,200,398,0.39799999999999996,1.848,27-05-2020,18:26:20,0
578f9f52eeaf6d00018d4f20,30,male,1,1,98,Clear_profit_side,no_enforcement2,0,0,-,left,9,16,1000,1.45,left,left,2,1,1,0.027000000000000003,59,118,200,398,0.39799999999999996,1.848,27-05-2020,18:26:20,0
578f9f52eeaf6d00018d4f20,30,male,1,1,100,Clear_profit_side,no_enforcement2,0,0,-,left,9,16,1000,1.45,left,left,2,1,1,0.017,59,118,200,398,0.39799999999999996,1.848,27-05-2020,18:26:20,0
578f9f52eeaf6d00018d4f20,30,male,1,2,5,Clear_profit_side,no_enforcement2,0,0,-,left,9,16,1000,1.45,left,left,2,1,1,0.037000000000000005,59,118,198,398,0.39799999999999996,1.848,27-05-2020,18:26:20,0
578f9f52eeaf6d00018d4f20,30,male,1,2,10,Ambigous_left,no_enforcement2,0,0,-,left,11,14,1000,1.45,left,left,2,1,1,0.039,59,118,198,398,0.39799999999999996,1.848,27-05-2020,18:26:20,0
578f9f52eeaf6d00018d4f20,30,male,1,2,14,Ambigous_left,no_enforcement2,0,0,-,left,11,14,1000,1.45,left,left,2,1,1,0.047,59,118,198,398,0.39799999999999996,1.848,27-05-2020,18:26:20,0
578f9f52eeaf6d00018d4f20,30,male,1,2,15,Clear_profit_side,no_enforcement2,0,0,-,left,9,16,1000,1.45,left,left,2,1,1,0.051,59,118,198,398,0.39799999999999996,1.848,27-05-2020,18:26:20,0
578f9f52eeaf6d00018d4f20,30,male,1,2,19,Clear_profit_side,no_enforcement2,0,0,-,left,9,16,1000,1.45,left,left,2,1,1,0.051,59,118,198,398,0.39799999999999996,1.848,27-05-2020,18:26:20,0
578f9f52eeaf6d00018d4f20,30,male,1,2,25,Ambigous_left,no_enforcement2,0,0,-,left,11,14,1000,1.45,left,left,2,1,1,0.026000000000000002,59,118,198,398,0.39799999999999996,1.848,27-05-2020,18:26:20,0
578f9f52eeaf6d00018d4f20,30,male,1,2,26,Ambigous_left,no_enforcement2,0,0,-,left,11,14,1000,1.45,left,left,2,1,1,0.040999999999999995,59,118,198,398,0.39799999999999996,1.848,27-05-2020,18:26:20,0
578f9f52eeaf6d00018d4f20,30,male,1,2,27,Ambigous_left,no_enforcement2,0,0,-,left,11,14,1000,1.45,left,left,2,1,1,0.053,59,118,198,398,0.39799999999999996,1.848,27-05-2020,18:26:20,0
578f9f52eeaf6d00018d4f20,30,male,1,2,32,Ambigous_left,no_enforcement2,0,0,-,left,11,14,1000,1.45,left,left,2,1,1,0.032,59,118,198,398,0.39799999999999996,1.848,27-05-2020,18:26:20,0
578f9f52eeaf6d00018d4f20,30,male,1,2,33,Clear_profit_side,no_enforcement2,0,0,-,left,9,16,1000,1.45,left,left,2,1,1,0.049,59,118,198,398,0.39799999999999996,1.848,27-05-2020,18:26:20,0
578f9f52eeaf6d00018d4f20,30,male,1,2,36,Clear_profit_side,no_enforcement2,0,0,-,left,9,16,1000,1.45,left,left,2,1,1,0.012,59,118,198,398,0.39799999999999996,1.848,27-05-2020,18:26:20,0
578f9f52eeaf6d00018d4f20,30,male,1,2,37,Clear_profit_side,no_enforcement2,0,0,-,left,9,16,1000,1.45,left,left,2,1,1,0.054000000000000006,59,118,198,398,0.39799999999999996,1.848,27-05-2020,18:26:20,0
578f9f52eeaf6d00018d4f20,30,male,1,2,38,Clear_profit_side,no_enforcement2,0,0,-,left,9,16,1000,1.45,left,left,2,1,1,0.079,59,118,198,398,0.39799999999999996,1.848,27-05-2020,18:26:20,0
578f9f52eeaf6d00018d4f20,30,male,1,2,39,Ambigous_left,no_enforcement2,0,0,-,left,11,14,1000,1.45,left,left,2,1,1,0.05,59,118,198,398,0.39799999999999996,1.848,27-05-2020,18:26:20,0
578f9f52eeaf6d00018d4f20,30,male,1,2,41,Ambigous_left,no_enforcement2,0,0,-,left,11,14,1000,1.45,left,left,2,1,1,0.04,59,118,198,398,0.39799999999999996,1.848,27-05-2020,18:26:20,0
578f9f52eeaf6d00018d4f20,30,male,1,2,42,Ambigous_left,no_enforcement2,0,0,-,left,11,14,1000,1.45,left,left,2,1,1,0.017,59,118,198,398,0.39799999999999996,1.848,27-05-2020,18:26:20,0
578f9f52eeaf6d00018d4f20,30,male,1,2,46,Ambigous_left,no_enforcement2,0,0,-,left,11,14,1000,1.45,left,left,2,1,1,0.013999999999999999,59,118,198,398,0.39799999999999996,1.848,27-05-2020,18:26:20,0
578f9f52eeaf6d00018d4f20,30,male,1,2,47,Ambigous_left,no_enforcement2,0,0,-,left,11,14,1000,1.45,left,left,2,1,1,0.013000000000000001,59,118,198,398,0.39799999999999996,1.848,27-05-2020,18:26:20,0
578f9f52eeaf6d00018d4f20,30,male,1,2,49,Clear_profit_side,no_enforcement2,0,0,-,left,9,16,1000,1.45,left,left,2,1,1,0.034,59,118,198,398,0.39799999999999996,1.848,27-05-2020,18:26:20,0
578f9f52eeaf6d00018d4f20,30,male,1,2,51,Clear_profit_side,no_enforcement2,0,0,-,left,9,16,1000,1.45,left,left,2,1,1,0.04,59,118,198,398,0.39799999999999996,1.848,27-05-2020,18:26:20,0
578f9f52eeaf6d00018d4f20,30,male,1,2,53,Ambigous_left,no_enforcement2,0,0,-,left,11,14,1000,1.45,left,left,2,1,1,0.1,59,118,198,398,0.39799999999999996,1.848,27-05-2020,18:26:20,0
578f9f52eeaf6d00018d4f20,30,male,1,2,57,Clear_profit_side,no_enforcement2,0,0,-,left,9,16,1000,1.45,left,left,2,1,1,0.063,59,118,198,398,0.39799999999999996,1.848,27-05-2020,18:26:20,0
578f9f52eeaf6d00018d4f20,30,male,1,2,58,Ambigous_left,no_enforcement2,0,0,-,left,11,14,1000,1.45,left,left,2,1,1,0.018000000000000002,59,118,198,398,0.39799999999999996,1.848,27-05-2020,18:26:20,0
578f9f52eeaf6d00018d4f20,30,male,1,2,59,Ambigous_left,no_enforcement2,0,0,-,left,11,14,1000,1.45,left,left,2,1,1,0.017,59,118,198,398,0.39799999999999996,1.848,27-05-2020,18:26:20,0
578f9f52eeaf6d00018d4f20,30,male,1,2,62,Clear_profit_side,no_enforcement2,0,0,-,left,9,16,1000,1.45,left,left,2,1,1,0.036000000000000004,59,118,198,398,0.39799999999999996,1.848,27-05-2020,18:26:20,0
578f9f52eeaf6d00018d4f20,30,male,1,2,67,Clear_profit_side,no_enforcement2,0,0,-,left,9,16,1000,1.45,left,left,2,1,1,0.077,59,118,198,398,0.39799999999999996,1.848,27-05-2020,18:26:20,0
578f9f52eeaf6d00018d4f20,30,male,1,2,69,Ambigous_left,no_enforcement2,0,0,-,left,11,14,1000,1.45,left,left,2,1,1,0.067,59,118,198,398,0.39799999999999996,1.848,27-05-2020,18:26:20,0
578f9f52eeaf6d00018d4f20,30,male,1,2,70,Ambigous_left,no_enforcement2,0,0,-,left,11,14,1000,1.45,left,left,2,1,1,0.081,59,118,198,398,0.39799999999999996,1.848,27-05-2020,18:26:20,0
578f9f52eeaf6d00018d4f20,30,male,1,2,71,Ambigous_left,no_enforcement2,0,0,-,left,11,14,1000,1.45,left,left,2,1,1,0.069,59,118,198,398,0.39799999999999996,1.848,27-05-2020,18:26:20,0
578f9f52eeaf6d00018d4f20,30,male,1,2,75,Ambigous_left,no_enforcement2,0,0,-,left,11,14,1000,1.45,left,left,2,1,1,0.027000000000000003,59,118,198,398,0.39799999999999996,1.848,27-05-2020,18:26:20,0
578f9f52eeaf6d00018d4f20,30,male,1,2,83,Clear_profit_side,no_enforcement2,0,0,-,left,9,16,1000,1.45,left,left,2,1,1,0.018000000000000002,59,118,198,398,0.39799999999999996,1.848,27-05-2020,18:26:20,0
578f9f52eeaf6d00018d4f20,30,male,1,2,84,Ambigous_left,no_enforcement2,0,0,-,left,11,14,1000,1.45,left,left,2,1,1,0.079,59,118,198,398,0.39799999999999996,1.848,27-05-2020,18:26:20,0
578f9f52eeaf6d00018d4f20,30,male,1,2,85,Clear_profit_side,no_enforcement2,0,0,-,left,9,16,1000,1.45,left,left,2,1,1,0.037000000000000005,59,118,198,398,0.39799999999999996,1.848,27-05-2020,18:26:20,0
578f9f52eeaf6d00018d4f20,30,male,1,2,86,Clear_profit_side,no_enforcement2,0,0,-,left,9,16,1000,1.45,left,left,2,1,1,0.08,59,118,198,398,0.39799999999999996,1.848,27-05-2020,18:26:20,0
578f9f52eeaf6d00018d4f20,30,male,1,2,87,Ambigous_left,no_enforcement2,0,0,-,left,11,14,1000,1.45,left,left,2,1,1,0.07200000000000001,59,118,198,398,0.39799999999999996,1.848,27-05-2020,18:26:20,0
578f9f52eeaf6d00018d4f20,30,male,1,2,90,Ambigous_left,no_enforcement2,0,0,-,left,11,14,1000,1.45,left,left,2,1,1,0.066,59,118,198,398,0.39799999999999996,1.848,27-05-2020,18:26:20,0
578f9f52eeaf6d00018d4f20,30,male,1,2,94,Ambigous_left,no_enforcement2,0,0,-,left,11,14,1000,1.45,left,left,2,1,1,0.064,59,118,198,398,0.39799999999999996,1.848,27-05-2020,18:26:20,0
578f9f52eeaf6d00018d4f20,30,male,1,2,95,Clear_profit_side,no_enforcement2,0,0,-,left,9,16,1000,1.45,left,left,2,1,1,0.06,59,118,198,398,0.39799999999999996,1.848,27-05-2020,18:26:20,0
578f9f52eeaf6d00018d4f20,30,male,1,2,96,Ambigous_left,no_enforcement2,0,0,-,left,11,14,1000,1.45,left,left,2,1,1,0.057999999999999996,59,118,198,398,0.39799999999999996,1.848,27-05-2020,18:26:20,0
578f9f52eeaf6d00018d4f20,30,male,1,2,99,Ambigous_left,no_enforcement2,0,0,-,left,11,14,1000,1.45,left,left,2,1,1,0.059000000000000004,59,118,198,398,0.39799999999999996,1.848,27-05-2020,18:26:20,0
595bf7acc76e6700014d33fc,52,female,1,1,2,Clear_profit_side,low_enforcement,10,0,-,left,9,16,1000,1.45,left,left,20,1,1,0.064,9,22,642,1170,1.17,2.62,27-05-2020,17:21:37,0
595bf7acc76e6700014d33fc,52,female,1,1,3,Ambigous_left,low_enforcement,10,0,-,left,11,14,1000,1.45,left,left,20,1,1,0.068,9,22,642,1170,1.17,2.62,27-05-2020,17:21:37,0
595bf7acc76e6700014d33fc,52,female,1,1,4,Clear_profit_side,low_enforcement,10,0,-,left,9,16,1000,1.45,left,left,20,1,1,0.08199999999999999,9,22,642,1170,1.17,2.62,27-05-2020,17:21:37,0
595bf7acc76e6700014d33fc,52,female,1,1,5,Ambigous_left,low_enforcement,10,0,-,left,11,14,1000,1.45,left,right,1,20,0,0.068,9,22,642,1170,1.17,2.62,27-05-2020,17:21:37,1
595bf7acc76e6700014d33fc,52,female,1,1,6,Ambigous_left,low_enforcement,10,0,-,left,11,14,1000,1.45,left,left,20,1,1,0.064,9,22,642,1170,1.17,2.62,27-05-2020,17:21:37,0
595bf7acc76e6700014d33fc,52,female,1,1,10,Clear_profit_side,low_enforcement,10,0,-,left,9,16,1000,1.45,left,left,20,1,1,0.057999999999999996,9,22,642,1170,1.17,2.62,27-05-2020,17:21:37,0
595bf7acc76e6700014d33fc,52,female,1,1,14,Clear_profit_side,low_enforcement,10,0,-,left,9,16,1000,1.45,left,left,20,1,1,0.07400000000000001,9,22,642,1170,1.17,2.62,27-05-2020,17:21:37,0
595bf7acc76e6700014d33fc,52,female,1,1,15,Ambigous_left,low_enforcement,10,0,-,left,11,14,1000,1.45,left,right,1,20,0,0.078,9,22,642,1170,1.17,2.62,27-05-2020,17:21:37,1
595bf7acc76e6700014d33fc,52,female,1,1,16,Ambigous_left,low_enforcement,10,0,-,left,11,14,1000,1.45,left,left,20,1,1,0.059000000000000004,9,22,642,1170,1.17,2.62,27-05-2020,17:21:37,0
595bf7acc76e6700014d33fc,52,female,1,1,19,Ambigous_left,low_enforcement,10,0,-,left,11,14,1000,1.45,left,left,20,1,1,0.048,9,22,642,1170,1.17,2.62,27-05-2020,17:21:37,0
595bf7acc76e6700014d33fc,52,female,1,1,21,Clear_profit_side,low_enforcement,10,0,-,left,9,16,1000,1.45,left,left,20,1,1,0.061,9,22,642,1170,1.17,2.62,27-05-2020,17:21:37,0
595bf7acc76e6700014d33fc,52,female,1,1,24,Clear_profit_side,low_enforcement,10,0,-,left,9,16,1000,1.45,left,left,20,1,1,0.049,9,22,642,1170,1.17,2.62,27-05-2020,17:21:37,0
595bf7acc76e6700014d33fc,52,female,1,1,26,Ambigous_left,low_enforcement,10,1,180,left,11,14,1000,1.45,left,left,20,-179,1,0.06,9,22,642,1170,1.17,2.62,27-05-2020,17:21:37,0
595bf7acc76e6700014d33fc,52,female,1,1,29,Ambigous_left,low_enforcement,10,0,-,left,11,14,1000,1.45,left,left,20,1,1,0.09300000000000001,9,22,642,1170,1.17,2.62,27-05-2020,17:21:37,0
595bf7acc76e6700014d33fc,52,female,1,1,30,Clear_profit_side,low_enforcement,10,0,-,left,9,16,1000,1.45,left,left,20,1,1,0.042,9,22,642,1170,1.17,2.62,27-05-2020,17:21:37,0
595bf7acc76e6700014d33fc,52,female,1,1,31,Clear_profit_side,low_enforcement,10,0,-,left,9,16,1000,1.45,left,left,20,1,1,0.055,9,22,642,1170,1.17,2.62,27-05-2020,17:21:37,0
595bf7acc76e6700014d33fc,52,female,1,1,32,Clear_profit_side,low_enforcement,10,0,-,left,9,16,1000,1.45,left,left,20,1,1,0.043,9,22,642,1170,1.17,2.62,27-05-2020,17:21:37,0
595bf7acc76e6700014d33fc,52,female,1,1,35,Clear_profit_side,low_enforcement,10,0,-,left,9,16,1000,1.45,left,left,20,1,1,0.059000000000000004,9,22,642,1170,1.17,2.62,27-05-2020,17:21:37,0
595bf7acc76e6700014d33fc,52,female,1,1,36,Ambigous_left,low_enforcement,10,0,-,left,11,14,1000,1.45,left,left,20,1,1,0.073,9,22,642,1170,1.17,2.62,27-05-2020,17:21:37,0
595bf7acc76e6700014d33fc,52,female,1,1,41,Ambigous_left,low_enforcement,10,0,-,left,11,14,1000,1.45,left,left,20,1,1,0.067,9,22,642,1170,1.17,2.62,27-05-2020,17:21:37,0
595bf7acc76e6700014d33fc,52,female,1,1,42,Ambigous_left,low_enforcement,10,0,-,left,11,14,1000,1.45,left,left,20,1,1,0.039,9,22,642,1170,1.17,2.62,27-05-2020,17:21:37,0
595bf7acc76e6700014d33fc,52,female,1,1,46,Clear_profit_side,low_enforcement,10,1,180,left,9,16,1000,1.45,left,left,20,-179,1,0.035,9,22,642,1170,1.17,2.62,27-05-2020,17:21:37,0
595bf7acc76e6700014d33fc,52,female,1,1,47,Clear_profit_side,low_enforcement,10,1,180,left,9,16,1000,1.45,left,left,20,-179,1,0.053,9,22,642,1170,1.17,2.62,27-05-2020,17:21:37,0
595bf7acc76e6700014d33fc,52,female,1,1,49,Ambigous_left,low_enforcement,10,0,-,left,11,14,1000,1.45,left,right,1,20,0,0.057,9,22,642,1170,1.17,2.62,27-05-2020,17:21:37,1
595bf7acc76e6700014d33fc,52,female,1,1,50,Ambigous_left,low_enforcement,10,0,-,left,11,14,1000,1.45,left,left,20,1,1,0.040999999999999995,9,22,642,1170,1.17,2.62,27-05-2020,17:21:37,0
595bf7acc76e6700014d33fc,52,female,1,1,53,Ambigous_left,low_enforcement,10,0,-,left,11,14,1000,1.45,left,left,20,1,1,0.057,9,22,642,1170,1.17,2.62,27-05-2020,17:21:37,0
595bf7acc76e6700014d33fc,52,female,1,1,56,Clear_profit_side,low_enforcement,10,0,-,left,9,16,1000,1.45,left,left,20,1,1,0.055999999999999994,9,22,642,1170,1.17,2.62,27-05-2020,17:21:37,0
595bf7acc76e6700014d33fc,52,female,1,1,58,Ambigous_left,low_enforcement,10,1,180,left,11,14,1000,1.45,left,left,20,-179,1,0.046,9,22,642,1170,1.17,2.62,27-05-2020,17:21:37,0
595bf7acc76e6700014d33fc,52,female,1,1,62,Ambigous_left,low_enforcement,10,0,-,left,11,14,1000,1.45,left,left,20,1,1,0.059000000000000004,9,22,642,1170,1.17,2.62,27-05-2020,17:21:37,0
595bf7acc76e6700014d33fc,52,female,1,1,63,Ambigous_left,low_enforcement,10,0,-,left,11,14,1000,1.45,left,left,20,1,1,0.052000000000000005,9,22,642,1170,1.17,2.62,27-05-2020,17:21:37,0
595bf7acc76e6700014d33fc,52,female,1,1,64,Ambigous_left,low_enforcement,10,0,-,left,11,14,1000,1.45,left,right,1,20,0,0.064,9,22,642,1170,1.17,2.62,27-05-2020,17:21:37,1
595bf7acc76e6700014d33fc,52,female,1,1,70,Ambigous_left,low_enforcement,10,0,-,left,11,14,1000,1.45,left,left,20,1,1,0.064,9,22,642,1170,1.17,2.62,27-05-2020,17:21:37,0
595bf7acc76e6700014d33fc,52,female,1,1,71,Ambigous_left,low_enforcement,10,0,-,left,11,14,1000,1.45,left,left,20,1,1,0.036000000000000004,9,22,642,1170,1.17,2.62,27-05-2020,17:21:37,0
595bf7acc76e6700014d33fc,52,female,1,1,72,Ambigous_left,low_enforcement,10,0,-,left,11,14,1000,1.45,left,left,20,1,1,0.081,9,22,642,1170,1.17,2.62,27-05-2020,17:21:37,0
595bf7acc76e6700014d33fc,52,female,1,1,74,Ambigous_left,low_enforcement,10,0,-,left,11,14,1000,1.45,left,right,1,20,0,0.046,9,22,642,1170,1.17,2.62,27-05-2020,17:21:37,1
595bf7acc76e6700014d33fc,52,female,1,1,78,Clear_profit_side,low_enforcement,10,0,-,left,9,16,1000,1.45,left,left,20,1,1,0.059000000000000004,9,22,642,1170,1.17,2.62,27-05-2020,17:21:37,0
595bf7acc76e6700014d33fc,52,female,1,1,81,Clear_profit_side,low_enforcement,10,0,-,left,9,16,1000,1.45,left,left,20,1,1,0.047,9,22,642,1170,1.17,2.62,27-05-2020,17:21:37,0
595bf7acc76e6700014d33fc,52,female,1,1,94,Ambigous_left,low_enforcement,10,0,-,left,11,14,1000,1.45,left,right,1,20,0,0.049,9,22,642,1170,1.17,2.62,27-05-2020,17:21:37,1
595bf7acc76e6700014d33fc,52,female,1,1,96,Ambigous_left,low_enforcement,10,0,-,left,11,14,1000,1.45,left,left,20,1,1,0.042,9,22,642,1170,1.17,2.62,27-05-2020,17:21:37,0
595bf7acc76e6700014d33fc,52,female,1,1,98,Ambigous_left,low_enforcement,10,0,-,left,11,14,1000,1.45,left,left,20,1,1,0.079,9,22,642,1170,1.17,2.62,27-05-2020,17:21:37,0
595bf7acc76e6700014d33fc,52,female,1,1,100,Clear_profit_side,low_enforcement,10,0,-,left,9,16,1000,1.45,left,left,20,1,1,0.044000000000000004,9,22,642,1170,1.17,2.62,27-05-2020,17:21:37,0
595bf7acc76e6700014d33fc,52,female,1,2,4,Clear_profit_side,low_enforcement,10,0,-,left,9,16,1000,1.45,left,left,20,1,1,0.049,13,22,528,1170,1.17,2.62,27-05-2020,17:21:37,0
595bf7acc76e6700014d33fc,52,female,1,2,6,Ambigous_left,low_enforcement,10,0,-,left,11,14,1000,1.45,left,left,20,1,1,0.038,13,22,528,1170,1.17,2.62,27-05-2020,17:21:37,0
595bf7acc76e6700014d33fc,52,female,1,2,9,Ambigous_left,low_enforcement,10,0,-,left,11,14,1000,1.45,left,right,1,20,0,0.046,13,22,528,1170,1.17,2.62,27-05-2020,17:21:37,1
595bf7acc76e6700014d33fc,52,female,1,2,10,Ambigous_left,low_enforcement,10,0,-,left,11,14,1000,1.45,left,left,20,1,1,0.038,13,22,528,1170,1.17,2.62,27-05-2020,17:21:37,0
595bf7acc76e6700014d33fc,52,female,1,2,11,Clear_profit_side,low_enforcement,10,0,-,left,9,16,1000,1.45,left,left,20,1,1,0.040999999999999995,13,22,528,1170,1.17,2.62,27-05-2020,17:21:37,0
595bf7acc76e6700014d33fc,52,female,1,2,12,Clear_profit_side,low_enforcement,10,0,-,left,9,16,1000,1.45,left,left,20,1,1,0.033,13,22,528,1170,1.17,2.62,27-05-2020,17:21:37,0
595bf7acc76e6700014d33fc,52,female,1,2,15,Ambigous_left,low_enforcement,10,0,-,left,11,14,1000,1.45,left,left,20,1,1,0.035,13,22,528,1170,1.17,2.62,27-05-2020,17:21:37,0
595bf7acc76e6700014d33fc,52,female,1,2,19,Ambigous_left,low_enforcement,10,0,-,left,11,14,1000,1.45,left,right,1,20,0,0.055,13,22,528,1170,1.17,2.62,27-05-2020,17:21:37,1
595bf7acc76e6700014d33fc,52,female,1,2,22,Ambigous_left,low_enforcement,10,0,-,left,11,14,1000,1.45,left,right,1,20,0,0.026000000000000002,13,22,528,1170,1.17,2.62,27-05-2020,17:21:37,1
595bf7acc76e6700014d33fc,52,female,1,2,23,Ambigous_left,low_enforcement,10,0,-,left,11,14,1000,1.45,left,right,1,20,0,0.040999999999999995,13,22,528,1170,1.17,2.62,27-05-2020,17:21:37,1
595bf7acc76e6700014d33fc,52,female,1,2,25,Clear_profit_side,low_enforcement,10,1,180,left,9,16,1000,1.45,left,left,20,-179,1,0.083,13,22,528,1170,1.17,2.62,27-05-2020,17:21:37,0
595bf7acc76e6700014d33fc,52,female,1,2,30,Ambigous_left,low_enforcement,10,0,-,left,11,14,1000,1.45,left,left,20,1,1,0.036000000000000004,13,22,528,1170,1.17,2.62,27-05-2020,17:21:37,0
595bf7acc76e6700014d33fc,52,female,1,2,32,Clear_profit_side,low_enforcement,10,0,-,left,9,16,1000,1.45,left,left,20,1,1,0.068,13,22,528,1170,1.17,2.62,27-05-2020,17:21:37,0
595bf7acc76e6700014d33fc,52,female,1,2,35,Clear_profit_side,low_enforcement,10,1,180,left,9,16,1000,1.45,left,left,20,-179,1,0.065,13,22,528,1170,1.17,2.62,27-05-2020,17:21:37,0
595bf7acc76e6700014d33fc,52,female,1,2,38,Clear_profit_side,low_enforcement,10,0,-,left,9,16,1000,1.45,left,left,20,1,1,0.047,13,22,528,1170,1.17,2.62,27-05-2020,17:21:37,0
595bf7acc76e6700014d33fc,52,female,1,2,43,Clear_profit_side,low_enforcement,10,0,-,left,9,16,1000,1.45,left,left,20,1,1,0.057999999999999996,13,22,528,1170,1.17,2.62,27-05-2020,17:21:37,0
595bf7acc76e6700014d33fc,52,female,1,2,44,Ambigous_left,low_enforcement,10,0,-,left,11,14,1000,1.45,left,left,20,1,1,0.046,13,22,528,1170,1.17,2.62,27-05-2020,17:21:37,0
595bf7acc76e6700014d33fc,52,female,1,2,45,Ambigous_left,low_enforcement,10,0,-,left,11,14,1000,1.45,left,left,20,1,1,0.021,13,22,528,1170,1.17,2.62,27-05-2020,17:21:37,0
595bf7acc76e6700014d33fc,52,female,1,2,48,Ambigous_left,low_enforcement,10,0,-,left,11,14,1000,1.45,left,right,1,20,0,0.037000000000000005,13,22,528,1170,1.17,2.62,27-05-2020,17:21:37,1
595bf7acc76e6700014d33fc,52,female,1,2,49,Ambigous_left,low_enforcement,10,1,180,left,11,14,1000,1.45,left,left,20,-179,1,0.098,13,22,528,1170,1.17,2.62,27-05-2020,17:21:37,0
595bf7acc76e6700014d33fc,52,female,1,2,50,Clear_profit_side,low_enforcement,10,0,-,left,9,16,1000,1.45,left,left,20,1,1,0.026000000000000002,13,22,528,1170,1.17,2.62,27-05-2020,17:21:37,0
595bf7acc76e6700014d33fc,52,female,1,2,55,Ambigous_left,low_enforcement,10,0,-,left,11,14,1000,1.45,left,left,20,1,1,0.028999999999999998,13,22,528,1170,1.17,2.62,27-05-2020,17:21:37,0
595bf7acc76e6700014d33fc,52,female,1,2,56,Ambigous_left,low_enforcement,10,0,-,left,11,14,1000,1.45,left,right,1,20,0,0.043,13,22,528,1170,1.17,2.62,27-05-2020,17:21:37,1
595bf7acc76e6700014d33fc,52,female,1,2,57,Ambigous_left,low_enforcement,10,0,-,left,11,14,1000,1.45,left,right,1,20,0,0.032,13,22,528,1170,1.17,2.62,27-05-2020,17:21:37,1
595bf7acc76e6700014d33fc,52,female,1,2,58,Clear_profit_side,low_enforcement,10,0,-,left,9,16,1000,1.45,left,left,20,1,1,0.040999999999999995,13,22,528,1170,1.17,2.62,27-05-2020,17:21:37,0
595bf7acc76e6700014d33fc,52,female,1,2,61,Clear_profit_side,low_enforcement,10,0,-,left,9,16,1000,1.45,left,left,20,1,1,0.032,13,22,528,1170,1.17,2.62,27-05-2020,17:21:37,0
595bf7acc76e6700014d33fc,52,female,1,2,64,Ambigous_left,low_enforcement,10,0,-,left,11,14,1000,1.45,left,left,20,1,1,0.038,13,22,528,1170,1.17,2.62,27-05-2020,17:21:37,0
595bf7acc76e6700014d33fc,52,female,1,2,67,Clear_profit_side,low_enforcement,10,0,-,left,9,16,1000,1.45,left,left,20,1,1,0.033,13,22,528,1170,1.17,2.62,27-05-2020,17:21:37,0
595bf7acc76e6700014d33fc,52,female,1,2,68,Clear_profit_side,low_enforcement,10,0,-,left,9,16,1000,1.45,left,left,20,1,1,0.055999999999999994,13,22,528,1170,1.17,2.62,27-05-2020,17:21:37,0
595bf7acc76e6700014d33fc,52,female,1,2,69,Ambigous_left,low_enforcement,10,0,-,left,11,14,1000,1.45,left,right,1,20,0,0.043,13,22,528,1170,1.17,2.62,27-05-2020,17:21:37,1
595bf7acc76e6700014d33fc,52,female,1,2,70,Ambigous_left,low_enforcement,10,0,-,left,11,14,1000,1.45,left,right,1,20,0,0.051,13,22,528,1170,1.17,2.62,27-05-2020,17:21:37,1
595bf7acc76e6700014d33fc,52,female,1,2,71,Ambigous_left,low_enforcement,10,0,-,left,11,14,1000,1.45,left,left,20,1,1,0.039,13,22,528,1170,1.17,2.62,27-05-2020,17:21:37,0
595bf7acc76e6700014d33fc,52,female,1,2,74,Clear_profit_side,low_enforcement,10,0,-,left,9,16,1000,1.45,left,left,20,1,1,0.028999999999999998,13,22,528,1170,1.17,2.62,27-05-2020,17:21:37,0
595bf7acc76e6700014d33fc,52,female,1,2,75,Ambigous_left,low_enforcement,10,0,-,left,11,14,1000,1.45,left,left,20,1,1,0.027999999999999997,13,22,528,1170,1.17,2.62,27-05-2020,17:21:37,0
595bf7acc76e6700014d33fc,52,female,1,2,82,Ambigous_left,low_enforcement,10,0,-,left,11,14,1000,1.45,left,left,20,1,1,0.047,13,22,528,1170,1.17,2.62,27-05-2020,17:21:37,0
595bf7acc76e6700014d33fc,52,female,1,2,84,Clear_profit_side,low_enforcement,10,1,180,left,9,16,1000,1.45,left,left,20,-179,1,0.035,13,22,528,1170,1.17,2.62,27-05-2020,17:21:37,0
595bf7acc76e6700014d33fc,52,female,1,2,85,Ambigous_left,low_enforcement,10,0,-,left,11,14,1000,1.45,left,left,20,1,1,0.046,13,22,528,1170,1.17,2.62,27-05-2020,17:21:37,0
595bf7acc76e6700014d33fc,52,female,1,2,87,Ambigous_left,low_enforcement,10,0,-,left,11,14,1000,1.45,left,left,20,1,1,0.043,13,22,528,1170,1.17,2.62,27-05-2020,17:21:37,0
595bf7acc76e6700014d33fc,52,female,1,2,89,Ambigous_left,low_enforcement,10,0,-,left,11,14,1000,1.45,left,right,1,20,0,0.037000000000000005,13,22,528,1170,1.17,2.62,27-05-2020,17:21:37,1
595bf7acc76e6700014d33fc,52,female,1,2,90,Clear_profit_side,low_enforcement,10,0,-,left,9,16,1000,1.45,left,left,20,1,1,0.044000000000000004,13,22,528,1170,1.17,2.62,27-05-2020,17:21:37,0
595bf7acc76e6700014d33fc,52,female,1,2,98,Ambigous_left,low_enforcement,10,0,-,left,11,14,1000,1.45,left,right,1,20,0,0.031,13,22,528,1170,1.17,2.62,27-05-2020,17:21:37,1
59e7276d5de9b000017ed1c1,38,male,0,1,6,Clear_profit_side,no_enforcement2,0,0,-,right,16,9,1000,1.45,right,right,2,1,1,0.48700000000000004,13,47,152,325,0.325,1.775,27-05-2020,17:50:42,0
59e7276d5de9b000017ed1c1,38,male,0,1,7,Ambigous_right,no_enforcement2,0,0,-,right,14,11,1000,1.45,right,right,2,1,1,0.401,13,47,152,325,0.325,1.775,27-05-2020,17:50:42,0
59e7276d5de9b000017ed1c1,38,male,0,1,11,Clear_profit_side,no_enforcement2,0,0,-,right,16,9,1000,1.45,right,right,2,1,1,0.5479999999999999,13,47,152,325,0.325,1.775,27-05-2020,17:50:42,0
59e7276d5de9b000017ed1c1,38,male,0,1,14,Clear_profit_side,no_enforcement2,0,0,-,right,16,9,1000,1.45,right,right,2,1,1,0.218,13,47,152,325,0.325,1.775,27-05-2020,17:50:42,0
59e7276d5de9b000017ed1c1,38,male,0,1,16,Ambigous_right,no_enforcement2,0,0,-,right,14,11,1000,1.45,right,right,2,1,1,0.43799999999999994,13,47,152,325,0.325,1.775,27-05-2020,17:50:42,0
59e7276d5de9b000017ed1c1,38,male,0,1,18,Clear_profit_side,no_enforcement2,0,0,-,right,16,9,1000,1.45,right,right,2,1,1,0.294,13,47,152,325,0.325,1.775,27-05-2020,17:50:42,0
59e7276d5de9b000017ed1c1,38,male,0,1,22,Clear_profit_side,no_enforcement2,0,0,-,right,16,9,1000,1.45,right,right,2,1,1,0.344,13,47,152,325,0.325,1.775,27-05-2020,17:50:42,0
59e7276d5de9b000017ed1c1,38,male,0,1,24,Ambigous_right,no_enforcement2,0,0,-,right,14,11,1000,1.45,right,right,2,1,1,0.293,13,47,152,325,0.325,1.775,27-05-2020,17:50:42,0
59e7276d5de9b000017ed1c1,38,male,0,1,25,Clear_profit_side,no_enforcement2,0,0,-,right,16,9,1000,1.45,right,right,2,1,1,0.38299999999999995,13,47,152,325,0.325,1.775,27-05-2020,17:50:42,0
59e7276d5de9b000017ed1c1,38,male,0,1,26,Clear_profit_side,no_enforcement2,0,0,-,right,16,9,1000,1.45,right,right,2,1,1,0.633,13,47,152,325,0.325,1.775,27-05-2020,17:50:42,0
59e7276d5de9b000017ed1c1,38,male,0,1,27,Ambigous_right,no_enforcement2,0,0,-,right,14,11,1000,1.45,right,right,2,1,1,0.452,13,47,152,325,0.325,1.775,27-05-2020,17:50:42,0
59e7276d5de9b000017ed1c1,38,male,0,1,29,Ambigous_right,no_enforcement2,0,0,-,right,14,11,1000,1.45,right,right,2,1,1,0.24,13,47,152,325,0.325,1.775,27-05-2020,17:50:42,0
59e7276d5de9b000017ed1c1,38,male,0,1,31,Clear_profit_side,no_enforcement2,0,0,-,right,16,9,1000,1.45,right,right,2,1,1,0.275,13,47,152,325,0.325,1.775,27-05-2020,17:50:42,0
59e7276d5de9b000017ed1c1,38,male,0,1,33,Ambigous_right,no_enforcement2,0,0,-,right,14,11,1000,1.45,right,right,2,1,1,0.203,13,47,152,325,0.325,1.775,27-05-2020,17:50:42,0
59e7276d5de9b000017ed1c1,38,male,0,1,35,Clear_profit_side,no_enforcement2,0,0,-,right,16,9,1000,1.45,right,right,2,1,1,0.245,13,47,152,325,0.325,1.775,27-05-2020,17:50:42,0
59e7276d5de9b000017ed1c1,38,male,0,1,38,Ambigous_right,no_enforcement2,0,0,-,right,14,11,1000,1.45,right,right,2,1,1,0.21100000000000002,13,47,152,325,0.325,1.775,27-05-2020,17:50:42,0
59e7276d5de9b000017ed1c1,38,male,0,1,39,Ambigous_right,no_enforcement2,0,0,-,right,14,11,1000,1.45,right,right,2,1,1,0.275,13,47,152,325,0.325,1.775,27-05-2020,17:50:42,0
59e7276d5de9b000017ed1c1,38,male,0,1,40,Ambigous_right,no_enforcement2,0,0,-,right,14,11,1000,1.45,right,right,2,1,1,0.20199999999999999,13,47,152,325,0.325,1.775,27-05-2020,17:50:42,0
59e7276d5de9b000017ed1c1,38,male,0,1,41,Ambigous_right,no_enforcement2,0,0,-,right,14,11,1000,1.45,right,right,2,1,1,0.225,13,47,152,325,0.325,1.775,27-05-2020,17:50:42,0
59e7276d5de9b000017ed1c1,38,male,0,1,44,Ambigous_right,no_enforcement2,0,0,-,right,14,11,1000,1.45,right,right,2,1,1,0.27,13,47,152,325,0.325,1.775,27-05-2020,17:50:42,0
59e7276d5de9b000017ed1c1,38,male,0,1,47,Ambigous_right,no_enforcement2,0,0,-,right,14,11,1000,1.45,right,right,2,1,1,0.228,13,47,152,325,0.325,1.775,27-05-2020,17:50:42,0
59e7276d5de9b000017ed1c1,38,male,0,1,54,Ambigous_right,no_enforcement2,0,0,-,right,14,11,1000,1.45,right,right,2,1,1,0.217,13,47,152,325,0.325,1.775,27-05-2020,17:50:42,0
59e7276d5de9b000017ed1c1,38,male,0,1,55,Ambigous_right,no_enforcement2,0,0,-,right,14,11,1000,1.45,right,right,2,1,1,0.221,13,47,152,325,0.325,1.775,27-05-2020,17:50:42,0
59e7276d5de9b000017ed1c1,38,male,0,1,58,Ambigous_right,no_enforcement2,0,0,-,right,14,11,1000,1.45,right,right,2,1,1,0.307,13,47,152,325,0.325,1.775,27-05-2020,17:50:42,0
59e7276d5de9b000017ed1c1,38,male,0,1,62,Ambigous_right,no_enforcement2,0,0,-,right,14,11,1000,1.45,right,left,1,2,0,0.48200000000000004,13,47,152,325,0.325,1.775,27-05-2020,17:50:42,1
59e7276d5de9b000017ed1c1,38,male,0,1,66,Ambigous_right,no_enforcement2,0,0,-,right,14,11,1000,1.45,right,right,2,1,1,0.264,13,47,152,325,0.325,1.775,27-05-2020,17:50:42,0
59e7276d5de9b000017ed1c1,38,male,0,1,70,Clear_profit_side,no_enforcement2,0,0,-,right,16,9,1000,1.45,right,right,2,1,1,0.34600000000000003,13,47,152,325,0.325,1.775,27-05-2020,17:50:42,0
59e7276d5de9b000017ed1c1,38,male,0,1,73,Ambigous_right,no_enforcement2,0,0,-,right,14,11,1000,1.45,right,right,2,1,1,0.213,13,47,152,325,0.325,1.775,27-05-2020,17:50:42,0
59e7276d5de9b000017ed1c1,38,male,0,1,74,Clear_profit_side,no_enforcement2,0,0,-,right,16,9,1000,1.45,right,right,2,1,1,0.245,13,47,152,325,0.325,1.775,27-05-2020,17:50:42,0
59e7276d5de9b000017ed1c1,38,male,0,1,75,Ambigous_right,no_enforcement2,0,0,-,right,14,11,1000,1.45,right,right,2,1,1,0.192,13,47,152,325,0.325,1.775,27-05-2020,17:50:42,0
59e7276d5de9b000017ed1c1,38,male,0,1,77,Ambigous_right,no_enforcement2,0,0,-,right,14,11,1000,1.45,right,right,2,1,1,0.295,13,47,152,325,0.325,1.775,27-05-2020,17:50:42,0
59e7276d5de9b000017ed1c1,38,male,0,1,83,Clear_profit_side,no_enforcement2,0,0,-,right,16,9,1000,1.45,right,right,2,1,1,0.27399999999999997,13,47,152,325,0.325,1.775,27-05-2020,17:50:42,0
59e7276d5de9b000017ed1c1,38,male,0,1,87,Clear_profit_side,no_enforcement2,0,0,-,right,16,9,1000,1.45,right,right,2,1,1,0.287,13,47,152,325,0.325,1.775,27-05-2020,17:50:42,0
59e7276d5de9b000017ed1c1,38,male,0,1,88,Clear_profit_side,no_enforcement2,0,0,-,right,16,9,1000,1.45,right,right,2,1,1,0.201,13,47,152,325,0.325,1.775,27-05-2020,17:50:42,0
59e7276d5de9b000017ed1c1,38,male,0,1,89,Ambigous_right,no_enforcement2,0,0,-,right,14,11,1000,1.45,right,right,2,1,1,0.179,13,47,152,325,0.325,1.775,27-05-2020,17:50:42,0
59e7276d5de9b000017ed1c1,38,male,0,1,91,Clear_profit_side,no_enforcement2,0,0,-,right,16,9,1000,1.45,right,right,2,1,1,0.174,13,47,152,325,0.325,1.775,27-05-2020,17:50:42,0
59e7276d5de9b000017ed1c1,38,male,0,1,93,Ambigous_right,no_enforcement2,0,0,-,right,14,11,1000,1.45,right,right,2,1,1,0.177,13,47,152,325,0.325,1.775,27-05-2020,17:50:42,0
59e7276d5de9b000017ed1c1,38,male,0,1,94,Ambigous_right,no_enforcement2,0,0,-,right,14,11,1000,1.45,right,right,2,1,1,0.179,13,47,152,325,0.325,1.775,27-05-2020,17:50:42,0
59e7276d5de9b000017ed1c1,38,male,0,1,95,Ambigous_right,no_enforcement2,0,0,-,right,14,11,1000,1.45,right,right,2,1,1,0.161,13,47,152,325,0.325,1.775,27-05-2020,17:50:42,0
59e7276d5de9b000017ed1c1,38,male,0,1,98,Clear_profit_side,no_enforcement2,0,0,-,right,16,9,1000,1.45,right,right,2,1,1,0.252,13,47,152,325,0.325,1.775,27-05-2020,17:50:42,0
59e7276d5de9b000017ed1c1,38,male,0,1,99,Ambigous_right,no_enforcement2,0,0,-,right,14,11,1000,1.45,right,right,2,1,1,0.349,13,47,152,325,0.325,1.775,27-05-2020,17:50:42,0
59e7276d5de9b000017ed1c1,38,male,0,2,2,Ambigous_right,no_enforcement2,0,0,-,right,14,11,1000,1.45,right,right,2,1,1,0.294,34,47,173,325,0.325,1.775,27-05-2020,17:50:42,0
59e7276d5de9b000017ed1c1,38,male,0,2,5,Ambigous_right,no_enforcement2,0,0,-,right,14,11,1000,1.45,right,right,2,1,1,0.17600000000000002,34,47,173,325,0.325,1.775,27-05-2020,17:50:42,0
59e7276d5de9b000017ed1c1,38,male,0,2,6,Clear_profit_side,no_enforcement2,0,0,-,right,16,9,1000,1.45,right,right,2,1,1,0.19399999999999998,34,47,173,325,0.325,1.775,27-05-2020,17:50:42,0
59e7276d5de9b000017ed1c1,38,male,0,2,7,Clear_profit_side,no_enforcement2,0,0,-,right,16,9,1000,1.45,right,right,2,1,1,0.272,34,47,173,325,0.325,1.775,27-05-2020,17:50:42,0
59e7276d5de9b000017ed1c1,38,male,0,2,11,Clear_profit_side,no_enforcement2,0,0,-,right,16,9,1000,1.45,right,right,2,1,1,0.225,34,47,173,325,0.325,1.775,27-05-2020,17:50:42,0
59e7276d5de9b000017ed1c1,38,male,0,2,16,Clear_profit_side,no_enforcement2,0,0,-,right,16,9,1000,1.45,right,right,2,1,1,0.21100000000000002,34,47,173,325,0.325,1.775,27-05-2020,17:50:42,0
59e7276d5de9b000017ed1c1,38,male,0,2,19,Clear_profit_side,no_enforcement2,0,0,-,right,16,9,1000,1.45,right,right,2,1,1,0.314,34,47,173,325,0.325,1.775,27-05-2020,17:50:42,0
59e7276d5de9b000017ed1c1,38,male,0,2,20,Ambigous_right,no_enforcement2,0,0,-,right,14,11,1000,1.45,right,right,2,1,1,0.162,34,47,173,325,0.325,1.775,27-05-2020,17:50:42,0
59e7276d5de9b000017ed1c1,38,male,0,2,24,Ambigous_right,no_enforcement2,0,0,-,right,14,11,1000,1.45,right,right,2,1,1,0.215,34,47,173,325,0.325,1.775,27-05-2020,17:50:42,0
59e7276d5de9b000017ed1c1,38,male,0,2,25,Clear_profit_side,no_enforcement2,0,0,-,right,16,9,1000,1.45,right,right,2,1,1,0.159,34,47,173,325,0.325,1.775,27-05-2020,17:50:42,0
59e7276d5de9b000017ed1c1,38,male,0,2,31,Clear_profit_side,no_enforcement2,0,0,-,right,16,9,1000,1.45,right,right,2,1,1,0.188,34,47,173,325,0.325,1.775,27-05-2020,17:50:42,0
59e7276d5de9b000017ed1c1,38,male,0,2,32,Clear_profit_side,no_enforcement2,0,0,-,right,16,9,1000,1.45,right,right,2,1,1,0.16,34,47,173,325,0.325,1.775,27-05-2020,17:50:42,0
59e7276d5de9b000017ed1c1,38,male,0,2,34,Ambigous_right,no_enforcement2,0,0,-,right,14,11,1000,1.45,right,right,2,1,1,0.22399999999999998,34,47,173,325,0.325,1.775,27-05-2020,17:50:42,0
59e7276d5de9b000017ed1c1,38,male,0,2,36,Ambigous_right,no_enforcement2,0,0,-,right,14,11,1000,1.45,right,right,2,1,1,0.177,34,47,173,325,0.325,1.775,27-05-2020,17:50:42,0
59e7276d5de9b000017ed1c1,38,male,0,2,42,Clear_profit_side,no_enforcement2,0,0,-,right,16,9,1000,1.45,right,right,2,1,1,0.22,34,47,173,325,0.325,1.775,27-05-2020,17:50:42,0
59e7276d5de9b000017ed1c1,38,male,0,2,43,Ambigous_right,no_enforcement2,0,0,-,right,14,11,1000,1.45,right,right,2,1,1,0.183,34,47,173,325,0.325,1.775,27-05-2020,17:50:42,0
59e7276d5de9b000017ed1c1,38,male,0,2,45,Ambigous_right,no_enforcement2,0,0,-,right,14,11,1000,1.45,right,right,2,1,1,0.32,34,47,173,325,0.325,1.775,27-05-2020,17:50:42,0
59e7276d5de9b000017ed1c1,38,male,0,2,47,Ambigous_right,no_enforcement2,0,0,-,right,14,11,1000,1.45,right,right,2,1,1,0.19899999999999998,34,47,173,325,0.325,1.775,27-05-2020,17:50:42,0
59e7276d5de9b000017ed1c1,38,male,0,2,48,Ambigous_right,no_enforcement2,0,0,-,right,14,11,1000,1.45,right,right,2,1,1,0.205,34,47,173,325,0.325,1.775,27-05-2020,17:50:42,0
59e7276d5de9b000017ed1c1,38,male,0,2,49,Ambigous_right,no_enforcement2,0,0,-,right,14,11,1000,1.45,right,right,2,1,1,0.14400000000000002,34,47,173,325,0.325,1.775,27-05-2020,17:50:42,0
59e7276d5de9b000017ed1c1,38,male,0,2,50,Ambigous_right,no_enforcement2,0,0,-,right,14,11,1000,1.45,right,right,2,1,1,0.145,34,47,173,325,0.325,1.775,27-05-2020,17:50:42,0
59e7276d5de9b000017ed1c1,38,male,0,2,51,Ambigous_right,no_enforcement2,0,0,-,right,14,11,1000,1.45,right,right,2,1,1,0.205,34,47,173,325,0.325,1.775,27-05-2020,17:50:42,0
59e7276d5de9b000017ed1c1,38,male,0,2,52,Ambigous_right,no_enforcement2,0,0,-,right,14,11,1000,1.45,right,left,1,2,0,0.39399999999999996,34,47,173,325,0.325,1.775,27-05-2020,17:50:42,1
59e7276d5de9b000017ed1c1,38,male,0,2,55,Ambigous_right,no_enforcement2,0,0,-,right,14,11,1000,1.45,right,right,2,1,1,0.24100000000000002,34,47,173,325,0.325,1.775,27-05-2020,17:50:42,0
59e7276d5de9b000017ed1c1,38,male,0,2,63,Ambigous_right,no_enforcement2,0,0,-,right,14,11,1000,1.45,right,right,2,1,1,0.36700000000000005,34,47,173,325,0.325,1.775,27-05-2020,17:50:42,0
59e7276d5de9b000017ed1c1,38,male,0,2,66,Ambigous_right,no_enforcement2,0,0,-,right,14,11,1000,1.45,right,right,2,1,1,0.23199999999999998,34,47,173,325,0.325,1.775,27-05-2020,17:50:42,0
59e7276d5de9b000017ed1c1,38,male,0,2,68,Ambigous_right,no_enforcement2,0,0,-,right,14,11,1000,1.45,right,right,2,1,1,0.168,34,47,173,325,0.325,1.775,27-05-2020,17:50:42,0
59e7276d5de9b000017ed1c1,38,male,0,2,69,Clear_profit_side,no_enforcement2,0,0,-,right,16,9,1000,1.45,right,right,2,1,1,0.248,34,47,173,325,0.325,1.775,27-05-2020,17:50:42,0
59e7276d5de9b000017ed1c1,38,male,0,2,70,Clear_profit_side,no_enforcement2,0,0,-,right,16,9,1000,1.45,right,right,2,1,1,0.15,34,47,173,325,0.325,1.775,27-05-2020,17:50:42,0
59e7276d5de9b000017ed1c1,38,male,0,2,73,Clear_profit_side,no_enforcement2,0,0,-,right,16,9,1000,1.45,right,right,2,1,1,0.147,34,47,173,325,0.325,1.775,27-05-2020,17:50:42,0
59e7276d5de9b000017ed1c1,38,male,0,2,74,Clear_profit_side,no_enforcement2,0,0,-,right,16,9,1000,1.45,right,right,2,1,1,0.135,34,47,173,325,0.325,1.775,27-05-2020,17:50:42,0
59e7276d5de9b000017ed1c1,38,male,0,2,76,Ambigous_right,no_enforcement2,0,0,-,right,14,11,1000,1.45,right,right,2,1,1,0.287,34,47,173,325,0.325,1.775,27-05-2020,17:50:42,0
59e7276d5de9b000017ed1c1,38,male,0,2,77,Clear_profit_side,no_enforcement2,0,0,-,right,16,9,1000,1.45,right,right,2,1,1,0.42200000000000004,34,47,173,325,0.325,1.775,27-05-2020,17:50:42,0
59e7276d5de9b000017ed1c1,38,male,0,2,80,Ambigous_right,no_enforcement2,0,0,-,right,14,11,1000,1.45,right,right,2,1,1,0.371,34,47,173,325,0.325,1.775,27-05-2020,17:50:42,0
59e7276d5de9b000017ed1c1,38,male,0,2,81,Clear_profit_side,no_enforcement2,0,0,-,right,16,9,1000,1.45,right,right,2,1,1,0.145,34,47,173,325,0.325,1.775,27-05-2020,17:50:42,0
59e7276d5de9b000017ed1c1,38,male,0,2,84,Ambigous_right,no_enforcement2,0,0,-,right,14,11,1000,1.45,right,right,2,1,1,0.146,34,47,173,325,0.325,1.775,27-05-2020,17:50:42,0
59e7276d5de9b000017ed1c1,38,male,0,2,89,Ambigous_right,no_enforcement2,0,0,-,right,14,11,1000,1.45,right,right,2,1,1,0.325,34,47,173,325,0.325,1.775,27-05-2020,17:50:42,0
59e7276d5de9b000017ed1c1,38,male,0,2,90,Ambigous_right,no_enforcement2,0,0,-,right,14,11,1000,1.45,right,right,2,1,1,0.153,34,47,173,325,0.325,1.775,27-05-2020,17:50:42,0
59e7276d5de9b000017ed1c1,38,male,0,2,94,Clear_profit_side,no_enforcement2,0,0,-,right,16,9,1000,1.45,right,right,2,1,1,0.154,34,47,173,325,0.325,1.775,27-05-2020,17:50:42,0
59e7276d5de9b000017ed1c1,38,male,0,2,95,Ambigous_right,no_enforcement2,0,0,-,right,14,11,1000,1.45,right,right,2,1,1,0.157,34,47,173,325,0.325,1.775,27-05-2020,17:50:42,0
59e7276d5de9b000017ed1c1,38,male,0,2,99,Ambigous_right,no_enforcement2,0,0,-,right,14,11,1000,1.45,right,right,2,1,1,0.221,34,47,173,325,0.325,1.775,27-05-2020,17:50:42,0
5b01842bc573030001c345e0,44,male,1,1,3,Clear_profit_side,high_enforcement,90,1,20,right,16,9,1000,1.45,right,right,20,-19,1,0.387,19,29,784,1597,1.597,3.047,27-05-2020,17:31:11,0
5b01842bc573030001c345e0,44,male,1,1,6,Clear_profit_side,high_enforcement,90,1,20,right,16,9,1000,1.45,right,right,20,-19,1,0.161,19,29,784,1597,1.597,3.047,27-05-2020,17:31:11,0
5b01842bc573030001c345e0,44,male,1,1,7,Ambigous_right,high_enforcement,90,1,20,right,14,11,1000,1.45,right,right,20,-19,1,0.149,19,29,784,1597,1.597,3.047,27-05-2020,17:31:11,0
5b01842bc573030001c345e0,44,male,1,1,8,Ambigous_right,high_enforcement,90,1,20,right,14,11,1000,1.45,right,right,20,-19,1,0.17300000000000001,19,29,784,1597,1.597,3.047,27-05-2020,17:31:11,0
5b01842bc573030001c345e0,44,male,1,1,9,Ambigous_right,high_enforcement,90,1,20,right,14,11,1000,1.45,right,right,20,-19,1,0.126,19,29,784,1597,1.597,3.047,27-05-2020,17:31:11,0
5b01842bc573030001c345e0,44,male,1,1,12,Ambigous_right,high_enforcement,90,1,20,right,14,11,1000,1.45,right,right,20,-19,1,0.12,19,29,784,1597,1.597,3.047,27-05-2020,17:31:11,0
5b01842bc573030001c345e0,44,male,1,1,14,Ambigous_right,high_enforcement,90,1,20,right,14,11,1000,1.45,right,right,20,-19,1,0.107,19,29,784,1597,1.597,3.047,27-05-2020,17:31:11,0
5b01842bc573030001c345e0,44,male,1,1,18,Clear_profit_side,high_enforcement,90,1,20,right,16,9,1000,1.45,right,right,20,-19,1,0.071,19,29,784,1597,1.597,3.047,27-05-2020,17:31:11,0
5b01842bc573030001c345e0,44,male,1,1,19,Ambigous_right,high_enforcement,90,1,20,right,14,11,1000,1.45,right,right,20,-19,1,0.107,19,29,784,1597,1.597,3.047,27-05-2020,17:31:11,0
5b01842bc573030001c345e0,44,male,1,1,21,Ambigous_right,high_enforcement,90,1,20,right,14,11,1000,1.45,right,right,20,-19,1,0.11,19,29,784,1597,1.597,3.047,27-05-2020,17:31:11,0
5b01842bc573030001c345e0,44,male,1,1,23,Ambigous_right,high_enforcement,90,1,20,right,14,11,1000,1.45,right,right,20,-19,1,0.08,19,29,784,1597,1.597,3.047,27-05-2020,17:31:11,0
5b01842bc573030001c345e0,44,male,1,1,27,Ambigous_right,high_enforcement,90,1,20,right,14,11,1000,1.45,right,right,20,-19,1,0.172,19,29,784,1597,1.597,3.047,27-05-2020,17:31:11,0
5b01842bc573030001c345e0,44,male,1,1,28,Ambigous_right,high_enforcement,90,0,-,right,14,11,1000,1.45,right,right,20,1,1,0.135,19,29,784,1597,1.597,3.047,27-05-2020,17:31:11,0
5b01842bc573030001c345e0,44,male,1,1,29,Clear_profit_side,high_enforcement,90,1,20,right,16,9,1000,1.45,right,right,20,-19,1,0.109,19,29,784,1597,1.597,3.047,27-05-2020,17:31:11,0
5b01842bc573030001c345e0,44,male,1,1,37,Ambigous_right,high_enforcement,90,1,20,right,14,11,1000,1.45,right,right,20,-19,1,0.14,19,29,784,1597,1.597,3.047,27-05-2020,17:31:11,0
5b01842bc573030001c345e0,44,male,1,1,39,Clear_profit_side,high_enforcement,90,1,20,right,16,9,1000,1.45,right,right,20,-19,1,0.141,19,29,784,1597,1.597,3.047,27-05-2020,17:31:11,0
5b01842bc573030001c345e0,44,male,1,1,43,Clear_profit_side,high_enforcement,90,1,20,right,16,9,1000,1.45,right,right,20,-19,1,0.109,19,29,784,1597,1.597,3.047,27-05-2020,17:31:11,0
5b01842bc573030001c345e0,44,male,1,1,45,Clear_profit_side,high_enforcement,90,1,20,right,16,9,1000,1.45,right,right,20,-19,1,0.121,19,29,784,1597,1.597,3.047,27-05-2020,17:31:11,0
5b01842bc573030001c345e0,44,male,1,1,46,Clear_profit_side,high_enforcement,90,1,20,right,16,9,1000,1.45,right,right,20,-19,1,0.113,19,29,784,1597,1.597,3.047,27-05-2020,17:31:11,0
5b01842bc573030001c345e0,44,male,1,1,48,Clear_profit_side,high_enforcement,90,1,20,right,16,9,1000,1.45,right,right,20,-19,1,0.071,19,29,784,1597,1.597,3.047,27-05-2020,17:31:11,0
5b01842bc573030001c345e0,44,male,1,1,50,Ambigous_right,high_enforcement,90,1,20,right,14,11,1000,1.45,right,right,20,-19,1,0.261,19,29,784,1597,1.597,3.047,27-05-2020,17:31:11,0
5b01842bc573030001c345e0,44,male,1,1,51,Ambigous_right,high_enforcement,90,1,20,right,14,11,1000,1.45,right,right,20,-19,1,0.18,19,29,784,1597,1.597,3.047,27-05-2020,17:31:11,0
5b01842bc573030001c345e0,44,male,1,1,52,Ambigous_right,high_enforcement,90,1,20,right,14,11,1000,1.45,right,right,20,-19,1,0.11,19,29,784,1597,1.597,3.047,27-05-2020,17:31:11,0
5b01842bc573030001c345e0,44,male,1,1,56,Ambigous_right,high_enforcement,90,1,20,right,14,11,1000,1.45,right,right,20,-19,1,0.147,19,29,784,1597,1.597,3.047,27-05-2020,17:31:11,0
5b01842bc573030001c345e0,44,male,1,1,60,Clear_profit_side,high_enforcement,90,0,-,right,16,9,1000,1.45,right,right,20,1,1,0.121,19,29,784,1597,1.597,3.047,27-05-2020,17:31:11,0
5b01842bc573030001c345e0,44,male,1,1,61,Ambigous_right,high_enforcement,90,1,20,right,14,11,1000,1.45,right,left,-19,0,0,0.289,19,29,784,1597,1.597,3.047,27-05-2020,17:31:11,1
5b01842bc573030001c345e0,44,male,1,1,62,Clear_profit_side,high_enforcement,90,1,20,right,16,9,1000,1.45,right,right,20,-19,1,0.11,19,29,784,1597,1.597,3.047,27-05-2020,17:31:11,0
5b01842bc573030001c345e0,44,male,1,1,70,Clear_profit_side,high_enforcement,90,1,20,right,16,9,1000,1.45,right,right,20,-19,1,0.141,19,29,784,1597,1.597,3.047,27-05-2020,17:31:11,0
5b01842bc573030001c345e0,44,male,1,1,71,Ambigous_right,high_enforcement,90,1,20,right,14,11,1000,1.45,right,right,20,-19,1,0.179,19,29,784,1597,1.597,3.047,27-05-2020,17:31:11,0
5b01842bc573030001c345e0,44,male,1,1,72,Clear_profit_side,high_enforcement,90,1,20,right,16,9,1000,1.45,right,right,20,-19,1,0.126,19,29,784,1597,1.597,3.047,27-05-2020,17:31:11,0
5b01842bc573030001c345e0,44,male,1,1,77,Ambigous_right,high_enforcement,90,1,20,right,14,11,1000,1.45,right,right,20,-19,1,0.135,19,29,784,1597,1.597,3.047,27-05-2020,17:31:11,0
5b01842bc573030001c345e0,44,male,1,1,78,Clear_profit_side,high_enforcement,90,1,20,right,16,9,1000,1.45,right,right,20,-19,1,0.125,19,29,784,1597,1.597,3.047,27-05-2020,17:31:11,0
5b01842bc573030001c345e0,44,male,1,1,79,Ambigous_right,high_enforcement,90,1,20,right,14,11,1000,1.45,right,right,20,-19,1,0.217,19,29,784,1597,1.597,3.047,27-05-2020,17:31:11,0
5b01842bc573030001c345e0,44,male,1,1,80,Ambigous_right,high_enforcement,90,1,20,right,14,11,1000,1.45,right,left,-19,0,0,0.247,19,29,784,1597,1.597,3.047,27-05-2020,17:31:11,1
5b01842bc573030001c345e0,44,male,1,1,81,Clear_profit_side,high_enforcement,90,1,20,right,16,9,1000,1.45,right,right,20,-19,1,0.11699999999999999,19,29,784,1597,1.597,3.047,27-05-2020,17:31:11,0
5b01842bc573030001c345e0,44,male,1,1,88,Ambigous_right,high_enforcement,90,0,-,right,14,11,1000,1.45,right,right,20,1,1,0.13,19,29,784,1597,1.597,3.047,27-05-2020,17:31:11,0
5b01842bc573030001c345e0,44,male,1,1,93,Clear_profit_side,high_enforcement,90,1,20,right,16,9,1000,1.45,right,right,20,-19,1,0.135,19,29,784,1597,1.597,3.047,27-05-2020,17:31:11,0
5b01842bc573030001c345e0,44,male,1,1,96,Ambigous_right,high_enforcement,90,1,20,right,14,11,1000,1.45,right,right,20,-19,1,0.128,19,29,784,1597,1.597,3.047,27-05-2020,17:31:11,0
5b01842bc573030001c345e0,44,male,1,1,98,Ambigous_right,high_enforcement,90,1,20,right,14,11,1000,1.45,right,right,20,-19,1,0.133,19,29,784,1597,1.597,3.047,27-05-2020,17:31:11,0
5b01842bc573030001c345e0,44,male,1,1,99,Ambigous_right,high_enforcement,90,1,20,right,14,11,1000,1.45,right,right,20,-19,1,0.13,19,29,784,1597,1.597,3.047,27-05-2020,17:31:11,0
5b01842bc573030001c345e0,44,male,1,1,100,Ambigous_right,high_enforcement,90,1,20,right,14,11,1000,1.45,right,right,20,-19,1,0.129,19,29,784,1597,1.597,3.047,27-05-2020,17:31:11,0
5b01842bc573030001c345e0,44,male,1,2,2,Ambigous_right,high_enforcement,90,1,20,right,14,11,1000,1.45,right,right,20,-19,1,0.126,10,29,813,1597,1.597,3.047,27-05-2020,17:31:11,0
5b01842bc573030001c345e0,44,male,1,2,6,Clear_profit_side,high_enforcement,90,1,20,right,16,9,1000,1.45,right,right,20,-19,1,0.11900000000000001,10,29,813,1597,1.597,3.047,27-05-2020,17:31:11,0
5b01842bc573030001c345e0,44,male,1,2,7,Clear_profit_side,high_enforcement,90,1,20,right,16,9,1000,1.45,right,right,20,-19,1,0.14400000000000002,10,29,813,1597,1.597,3.047,27-05-2020,17:31:11,0
5b01842bc573030001c345e0,44,male,1,2,10,Ambigous_right,high_enforcement,90,1,20,right,14,11,1000,1.45,right,right,20,-19,1,0.141,10,29,813,1597,1.597,3.047,27-05-2020,17:31:11,0
5b01842bc573030001c345e0,44,male,1,2,14,Ambigous_right,high_enforcement,90,1,20,right,14,11,1000,1.45,right,right,20,-19,1,0.129,10,29,813,1597,1.597,3.047,27-05-2020,17:31:11,0
5b01842bc573030001c345e0,44,male,1,2,15,Ambigous_right,high_enforcement,90,1,20,right,14,11,1000,1.45,right,right,20,-19,1,0.122,10,29,813,1597,1.597,3.047,27-05-2020,17:31:11,0
5b01842bc573030001c345e0,44,male,1,2,19,Ambigous_right,high_enforcement,90,1,20,right,14,11,1000,1.45,right,right,20,-19,1,0.081,10,29,813,1597,1.597,3.047,27-05-2020,17:31:11,0
5b01842bc573030001c345e0,44,male,1,2,20,Clear_profit_side,high_enforcement,90,0,-,right,16,9,1000,1.45,right,right,20,1,1,0.11699999999999999,10,29,813,1597,1.597,3.047,27-05-2020,17:31:11,0
5b01842bc573030001c345e0,44,male,1,2,24,Ambigous_right,high_enforcement,90,1,20,right,14,11,1000,1.45,right,right,20,-19,1,0.12300000000000001,10,29,813,1597,1.597,3.047,27-05-2020,17:31:11,0
5b01842bc573030001c345e0,44,male,1,2,26,Ambigous_right,high_enforcement,90,0,-,right,14,11,1000,1.45,right,right,20,1,1,0.098,10,29,813,1597,1.597,3.047,27-05-2020,17:31:11,0
5b01842bc573030001c345e0,44,male,1,2,29,Ambigous_right,high_enforcement,90,1,20,right,14,11,1000,1.45,right,right,20,-19,1,0.126,10,29,813,1597,1.597,3.047,27-05-2020,17:31:11,0
5b01842bc573030001c345e0,44,male,1,2,33,Ambigous_right,high_enforcement,90,1,20,right,14,11,1000,1.45,right,right,20,-19,1,0.155,10,29,813,1597,1.597,3.047,27-05-2020,17:31:11,0
5b01842bc573030001c345e0,44,male,1,2,35,Ambigous_right,high_enforcement,90,1,20,right,14,11,1000,1.45,right,right,20,-19,1,0.124,10,29,813,1597,1.597,3.047,27-05-2020,17:31:11,0
5b01842bc573030001c345e0,44,male,1,2,37,Clear_profit_side,high_enforcement,90,1,20,right,16,9,1000,1.45,right,right,20,-19,1,0.077,10,29,813,1597,1.597,3.047,27-05-2020,17:31:11,0
5b01842bc573030001c345e0,44,male,1,2,39,Ambigous_right,high_enforcement,90,1,20,right,14,11,1000,1.45,right,right,20,-19,1,0.134,10,29,813,1597,1.597,3.047,27-05-2020,17:31:11,0
5b01842bc573030001c345e0,44,male,1,2,40,Ambigous_right,high_enforcement,90,1,20,right,14,11,1000,1.45,right,right,20,-19,1,0.12,10,29,813,1597,1.597,3.047,27-05-2020,17:31:11,0
5b01842bc573030001c345e0,44,male,1,2,41,Ambigous_right,high_enforcement,90,1,20,right,14,11,1000,1.45,right,right,20,-19,1,0.12300000000000001,10,29,813,1597,1.597,3.047,27-05-2020,17:31:11,0
5b01842bc573030001c345e0,44,male,1,2,43,Ambigous_right,high_enforcement,90,1,20,right,14,11,1000,1.45,right,right,20,-19,1,0.086,10,29,813,1597,1.597,3.047,27-05-2020,17:31:11,0
5b01842bc573030001c345e0,44,male,1,2,46,Clear_profit_side,high_enforcement,90,1,20,right,16,9,1000,1.45,right,right,20,-19,1,0.125,10,29,813,1597,1.597,3.047,27-05-2020,17:31:11,0
5b01842bc573030001c345e0,44,male,1,2,48,Ambigous_right,high_enforcement,90,1,20,right,14,11,1000,1.45,right,right,20,-19,1,0.105,10,29,813,1597,1.597,3.047,27-05-2020,17:31:11,0
5b01842bc573030001c345e0,44,male,1,2,50,Ambigous_right,high_enforcement,90,0,-,right,14,11,1000,1.45,right,right,20,1,1,0.204,10,29,813,1597,1.597,3.047,27-05-2020,17:31:11,0
5b01842bc573030001c345e0,44,male,1,2,53,Clear_profit_side,high_enforcement,90,1,20,right,16,9,1000,1.45,right,right,20,-19,1,0.114,10,29,813,1597,1.597,3.047,27-05-2020,17:31:11,0
5b01842bc573030001c345e0,44,male,1,2,54,Clear_profit_side,high_enforcement,90,1,20,right,16,9,1000,1.45,right,right,20,-19,1,0.125,10,29,813,1597,1.597,3.047,27-05-2020,17:31:11,0
5b01842bc573030001c345e0,44,male,1,2,55,Ambigous_right,high_enforcement,90,1,20,right,14,11,1000,1.45,right,right,20,-19,1,0.122,10,29,813,1597,1.597,3.047,27-05-2020,17:31:11,0
5b01842bc573030001c345e0,44,male,1,2,56,Clear_profit_side,high_enforcement,90,1,20,right,16,9,1000,1.45,right,right,20,-19,1,0.10800000000000001,10,29,813,1597,1.597,3.047,27-05-2020,17:31:11,0
5b01842bc573030001c345e0,44,male,1,2,57,Clear_profit_side,high_enforcement,90,1,20,right,16,9,1000,1.45,right,right,20,-19,1,0.091,10,29,813,1597,1.597,3.047,27-05-2020,17:31:11,0
5b01842bc573030001c345e0,44,male,1,2,63,Clear_profit_side,high_enforcement,90,1,20,right,16,9,1000,1.45,right,right,20,-19,1,0.105,10,29,813,1597,1.597,3.047,27-05-2020,17:31:12,0
5b01842bc573030001c345e0,44,male,1,2,67,Ambigous_right,high_enforcement,90,1,20,right,14,11,1000,1.45,right,right,20,-19,1,0.124,10,29,813,1597,1.597,3.047,27-05-2020,17:31:12,0
5b01842bc573030001c345e0,44,male,1,2,69,Ambigous_right,high_enforcement,90,1,20,right,14,11,1000,1.45,right,left,-19,0,0,0.149,10,29,813,1597,1.597,3.047,27-05-2020,17:31:12,1
5b01842bc573030001c345e0,44,male,1,2,72,Ambigous_right,high_enforcement,90,1,20,right,14,11,1000,1.45,right,right,20,-19,1,0.124,10,29,813,1597,1.597,3.047,27-05-2020,17:31:12,0
5b01842bc573030001c345e0,44,male,1,2,75,Ambigous_right,high_enforcement,90,1,20,right,14,11,1000,1.45,right,right,20,-19,1,0.128,10,29,813,1597,1.597,3.047,27-05-2020,17:31:12,0
5b01842bc573030001c345e0,44,male,1,2,78,Clear_profit_side,high_enforcement,90,1,20,right,16,9,1000,1.45,right,right,20,-19,1,0.1,10,29,813,1597,1.597,3.047,27-05-2020,17:31:12,0
5b01842bc573030001c345e0,44,male,1,2,79,Clear_profit_side,high_enforcement,90,0,-,right,16,9,1000,1.45,right,right,20,1,1,0.252,10,29,813,1597,1.597,3.047,27-05-2020,17:31:12,0
5b01842bc573030001c345e0,44,male,1,2,81,Ambigous_right,high_enforcement,90,0,-,right,14,11,1000,1.45,right,left,1,20,0,0.415,10,29,813,1597,1.597,3.047,27-05-2020,17:31:12,1
5b01842bc573030001c345e0,44,male,1,2,85,Ambigous_right,high_enforcement,90,1,20,right,14,11,1000,1.45,right,right,20,-19,1,0.12,10,29,813,1597,1.597,3.047,27-05-2020,17:31:12,0
5b01842bc573030001c345e0,44,male,1,2,88,Clear_profit_side,high_enforcement,90,1,20,right,16,9,1000,1.45,right,right,20,-19,1,0.21,10,29,813,1597,1.597,3.047,27-05-2020,17:31:12,0
5b01842bc573030001c345e0,44,male,1,2,89,Clear_profit_side,high_enforcement,90,1,20,right,16,9,1000,1.45,right,right,20,-19,1,0.11800000000000001,10,29,813,1597,1.597,3.047,27-05-2020,17:31:12,0
5b01842bc573030001c345e0,44,male,1,2,90,Clear_profit_side,high_enforcement,90,1,20,right,16,9,1000,1.45,right,right,20,-19,1,0.11199999999999999,10,29,813,1597,1.597,3.047,27-05-2020,17:31:12,0
5b01842bc573030001c345e0,44,male,1,2,94,Clear_profit_side,high_enforcement,90,1,20,right,16,9,1000,1.45,right,right,20,-19,1,0.11599999999999999,10,29,813,1597,1.597,3.047,27-05-2020,17:31:12,0
5b01842bc573030001c345e0,44,male,1,2,96,Ambigous_right,high_enforcement,90,1,20,right,14,11,1000,1.45,right,right,20,-19,1,0.128,10,29,813,1597,1.597,3.047,27-05-2020,17:31:12,0
5b01842bc573030001c345e0,44,male,1,2,98,Ambigous_right,high_enforcement,90,0,-,right,14,11,1000,1.45,right,right,20,1,1,0.115,10,29,813,1597,1.597,3.047,27-05-2020,17:31:12,0
5c8d2f74e775150016db3700,20,female,0,1,4,Ambigous_left,high_enforcement,90,1,20,left,11,14,1000,1.45,left,left,20,-19,1,0.278,5,15,760,1553,1.5530000000000002,3.003,27-05-2020,17:15:14,0
5c8d2f74e775150016db3700,20,female,0,1,5,Ambigous_left,high_enforcement,90,0,-,left,11,14,1000,1.45,left,left,20,1,1,0.387,5,15,760,1553,1.5530000000000002,3.003,27-05-2020,17:15:14,0
5c8d2f74e775150016db3700,20,female,0,1,6,Ambigous_left,high_enforcement,90,1,20,left,11,14,1000,1.45,left,left,20,-19,1,0.22899999999999998,5,15,760,1553,1.5530000000000002,3.003,27-05-2020,17:15:14,0
5c8d2f74e775150016db3700,20,female,0,1,7,Ambigous_left,high_enforcement,90,1,20,left,11,14,1000,1.45,left,left,20,-19,1,0.293,5,15,760,1553,1.5530000000000002,3.003,27-05-2020,17:15:14,0
5c8d2f74e775150016db3700,20,female,0,1,8,Ambigous_left,high_enforcement,90,1,20,left,11,14,1000,1.45,left,left,20,-19,1,0.46,5,15,760,1553,1.5530000000000002,3.003,27-05-2020,17:15:14,0
5c8d2f74e775150016db3700,20,female,0,1,12,Ambigous_left,high_enforcement,90,1,20,left,11,14,1000,1.45,left,left,20,-19,1,0.223,5,15,760,1553,1.5530000000000002,3.003,27-05-2020,17:15:14,0
5c8d2f74e775150016db3700,20,female,0,1,14,Ambigous_left,high_enforcement,90,1,20,left,11,14,1000,1.45,left,left,20,-19,1,0.423,5,15,760,1553,1.5530000000000002,3.003,27-05-2020,17:15:14,0
5c8d2f74e775150016db3700,20,female,0,1,15,Ambigous_left,high_enforcement,90,1,20,left,11,14,1000,1.45,left,left,20,-19,1,0.336,5,15,760,1553,1.5530000000000002,3.003,27-05-2020,17:15:14,0
5c8d2f74e775150016db3700,20,female,0,1,17,Ambigous_left,high_enforcement,90,1,20,left,11,14,1000,1.45,left,left,20,-19,1,0.233,5,15,760,1553,1.5530000000000002,3.003,27-05-2020,17:15:14,0
5c8d2f74e775150016db3700,20,female,0,1,20,Ambigous_left,high_enforcement,90,1,20,left,11,14,1000,1.45,left,left,20,-19,1,0.222,5,15,760,1553,1.5530000000000002,3.003,27-05-2020,17:15:14,0
5c8d2f74e775150016db3700,20,female,0,1,22,Ambigous_left,high_enforcement,90,1,20,left,11,14,1000,1.45,left,left,20,-19,1,0.391,5,15,760,1553,1.5530000000000002,3.003,27-05-2020,17:15:14,0
5c8d2f74e775150016db3700,20,female,0,1,25,Ambigous_left,high_enforcement,90,1,20,left,11,14,1000,1.45,left,left,20,-19,1,0.222,5,15,760,1553,1.5530000000000002,3.003,27-05-2020,17:15:14,0
5c8d2f74e775150016db3700,20,female,0,1,28,Clear_profit_side,high_enforcement,90,1,20,left,9,16,1000,1.45,left,left,20,-19,1,0.19699999999999998,5,15,760,1553,1.5530000000000002,3.003,27-05-2020,17:15:14,0
5c8d2f74e775150016db3700,20,female,0,1,32,Ambigous_left,high_enforcement,90,1,20,left,11,14,1000,1.45,left,right,-19,0,0,0.139,5,15,760,1553,1.5530000000000002,3.003,27-05-2020,17:15:14,1
5c8d2f74e775150016db3700,20,female,0,1,33,Clear_profit_side,high_enforcement,90,1,20,left,9,16,1000,1.45,left,left,20,-19,1,0.19399999999999998,5,15,760,1553,1.5530000000000002,3.003,27-05-2020,17:15:14,0
5c8d2f74e775150016db3700,20,female,0,1,34,Clear_profit_side,high_enforcement,90,1,20,left,9,16,1000,1.45,left,left,20,-19,1,0.188,5,15,760,1553,1.5530000000000002,3.003,27-05-2020,17:15:14,0
5c8d2f74e775150016db3700,20,female,0,1,36,Ambigous_left,high_enforcement,90,1,20,left,11,14,1000,1.45,left,left,20,-19,1,0.201,5,15,760,1553,1.5530000000000002,3.003,27-05-2020,17:15:14,0
5c8d2f74e775150016db3700,20,female,0,1,37,Ambigous_left,high_enforcement,90,1,20,left,11,14,1000,1.45,left,left,20,-19,1,0.299,5,15,760,1553,1.5530000000000002,3.003,27-05-2020,17:15:14,0
5c8d2f74e775150016db3700,20,female,0,1,39,Clear_profit_side,high_enforcement,90,1,20,left,9,16,1000,1.45,left,left,20,-19,1,0.16899999999999998,5,15,760,1553,1.5530000000000002,3.003,27-05-2020,17:15:14,0
5c8d2f74e775150016db3700,20,female,0,1,40,Clear_profit_side,high_enforcement,90,1,20,left,9,16,1000,1.45,left,left,20,-19,1,0.162,5,15,760,1553,1.5530000000000002,3.003,27-05-2020,17:15:14,0
5c8d2f74e775150016db3700,20,female,0,1,41,Clear_profit_side,high_enforcement,90,1,20,left,9,16,1000,1.45,left,left,20,-19,1,0.168,5,15,760,1553,1.5530000000000002,3.003,27-05-2020,17:15:14,0
5c8d2f74e775150016db3700,20,female,0,1,43,Clear_profit_side,high_enforcement,90,1,20,left,9,16,1000,1.45,left,left,20,-19,1,0.14400000000000002,5,15,760,1553,1.5530000000000002,3.003,27-05-2020,17:15:14,0
5c8d2f74e775150016db3700,20,female,0,1,46,Clear_profit_side,high_enforcement,90,1,20,left,9,16,1000,1.45,left,left,20,-19,1,0.154,5,15,760,1553,1.5530000000000002,3.003,27-05-2020,17:15:14,0
5c8d2f74e775150016db3700,20,female,0,1,52,Clear_profit_side,high_enforcement,90,1,20,left,9,16,1000,1.45,left,left,20,-19,1,0.222,5,15,760,1553,1.5530000000000002,3.003,27-05-2020,17:15:14,0
5c8d2f74e775150016db3700,20,female,0,1,54,Ambigous_left,high_enforcement,90,1,20,left,11,14,1000,1.45,left,left,20,-19,1,0.131,5,15,760,1553,1.5530000000000002,3.003,27-05-2020,17:15:14,0
5c8d2f74e775150016db3700,20,female,0,1,56,Clear_profit_side,high_enforcement,90,1,20,left,9,16,1000,1.45,left,left,20,-19,1,0.159,5,15,760,1553,1.5530000000000002,3.003,27-05-2020,17:15:14,0
5c8d2f74e775150016db3700,20,female,0,1,59,Clear_profit_side,high_enforcement,90,1,20,left,9,16,1000,1.45,left,left,20,-19,1,0.15,5,15,760,1553,1.5530000000000002,3.003,27-05-2020,17:15:14,0
5c8d2f74e775150016db3700,20,female,0,1,60,Ambigous_left,high_enforcement,90,1,20,left,11,14,1000,1.45,left,right,-19,0,0,0.166,5,15,760,1553,1.5530000000000002,3.003,27-05-2020,17:15:14,1
5c8d2f74e775150016db3700,20,female,0,1,73,Ambigous_left,high_enforcement,90,1,20,left,11,14,1000,1.45,left,left,20,-19,1,0.152,5,15,760,1553,1.5530000000000002,3.003,27-05-2020,17:15:14,0
5c8d2f74e775150016db3700,20,female,0,1,79,Ambigous_left,high_enforcement,90,1,20,left,11,14,1000,1.45,left,left,20,-19,1,0.3,5,15,760,1553,1.5530000000000002,3.003,27-05-2020,17:15:14,0
5c8d2f74e775150016db3700,20,female,0,1,80,Ambigous_left,high_enforcement,90,1,20,left,11,14,1000,1.45,left,right,-19,0,0,0.174,5,15,760,1553,1.5530000000000002,3.003,27-05-2020,17:15:14,1
5c8d2f74e775150016db3700,20,female,0,1,81,Clear_profit_side,high_enforcement,90,1,20,left,9,16,1000,1.45,left,left,20,-19,1,0.242,5,15,760,1553,1.5530000000000002,3.003,27-05-2020,17:15:14,0
5c8d2f74e775150016db3700,20,female,0,1,82,Clear_profit_side,high_enforcement,90,1,20,left,9,16,1000,1.45,left,left,20,-19,1,0.184,5,15,760,1553,1.5530000000000002,3.003,27-05-2020,17:15:14,0
5c8d2f74e775150016db3700,20,female,0,1,83,Ambigous_left,high_enforcement,90,1,20,left,11,14,1000,1.45,left,left,20,-19,1,0.152,5,15,760,1553,1.5530000000000002,3.003,27-05-2020,17:15:14,0
5c8d2f74e775150016db3700,20,female,0,1,84,Ambigous_left,high_enforcement,90,1,20,left,11,14,1000,1.45,left,left,20,-19,1,0.27899999999999997,5,15,760,1553,1.5530000000000002,3.003,27-05-2020,17:15:14,0
5c8d2f74e775150016db3700,20,female,0,1,87,Clear_profit_side,high_enforcement,90,1,20,left,9,16,1000,1.45,left,left,20,-19,1,0.18600000000000003,5,15,760,1553,1.5530000000000002,3.003,27-05-2020,17:15:14,0
5c8d2f74e775150016db3700,20,female,0,1,90,Ambigous_left,high_enforcement,90,1,20,left,11,14,1000,1.45,left,left,20,-19,1,0.16699999999999998,5,15,760,1553,1.5530000000000002,3.003,27-05-2020,17:15:14,0
5c8d2f74e775150016db3700,20,female,0,1,94,Clear_profit_side,high_enforcement,90,1,20,left,9,16,1000,1.45,left,left,20,-19,1,0.14300000000000002,5,15,760,1553,1.5530000000000002,3.003,27-05-2020,17:15:14,0
5c8d2f74e775150016db3700,20,female,0,1,95,Ambigous_left,high_enforcement,90,1,20,left,11,14,1000,1.45,left,left,20,-19,1,0.159,5,15,760,1553,1.5530000000000002,3.003,27-05-2020,17:15:14,0
5c8d2f74e775150016db3700,20,female,0,1,96,Clear_profit_side,high_enforcement,90,1,20,left,9,16,1000,1.45,left,left,20,-19,1,0.152,5,15,760,1553,1.5530000000000002,3.003,27-05-2020,17:15:14,0
5c8d2f74e775150016db3700,20,female,0,1,97,Ambigous_left,high_enforcement,90,1,20,left,11,14,1000,1.45,left,left,20,-19,1,0.156,5,15,760,1553,1.5530000000000002,3.003,27-05-2020,17:15:14,0
5c8d2f74e775150016db3700,20,female,0,2,12,Clear_profit_side,high_enforcement,90,1,20,left,9,16,1000,1.45,left,left,20,-19,1,0.147,10,15,793,1553,1.5530000000000002,3.003,27-05-2020,17:15:14,0
5c8d2f74e775150016db3700,20,female,0,2,15,Clear_profit_side,high_enforcement,90,1,20,left,9,16,1000,1.45,left,left,20,-19,1,0.134,10,15,793,1553,1.5530000000000002,3.003,27-05-2020,17:15:14,0
5c8d2f74e775150016db3700,20,female,0,2,17,Clear_profit_side,high_enforcement,90,1,20,left,9,16,1000,1.45,left,left,20,-19,1,0.146,10,15,793,1553,1.5530000000000002,3.003,27-05-2020,17:15:14,0
5c8d2f74e775150016db3700,20,female,0,2,18,Ambigous_left,high_enforcement,90,1,20,left,11,14,1000,1.45,left,left,20,-19,1,0.146,10,15,793,1553,1.5530000000000002,3.003,27-05-2020,17:15:14,0
5c8d2f74e775150016db3700,20,female,0,2,19,Ambigous_left,high_enforcement,90,1,20,left,11,14,1000,1.45,left,left,20,-19,1,0.15,10,15,793,1553,1.5530000000000002,3.003,27-05-2020,17:15:14,0
5c8d2f74e775150016db3700,20,female,0,2,23,Ambigous_left,high_enforcement,90,0,-,left,11,14,1000,1.45,left,left,20,1,1,0.26,10,15,793,1553,1.5530000000000002,3.003,27-05-2020,17:15:14,0
5c8d2f74e775150016db3700,20,female,0,2,24,Ambigous_left,high_enforcement,90,1,20,left,11,14,1000,1.45,left,left,20,-19,1,0.184,10,15,793,1553,1.5530000000000002,3.003,27-05-2020,17:15:14,0
5c8d2f74e775150016db3700,20,female,0,2,26,Clear_profit_side,high_enforcement,90,1,20,left,9,16,1000,1.45,left,left,20,-19,1,0.171,10,15,793,1553,1.5530000000000002,3.003,27-05-2020,17:15:14,0
5c8d2f74e775150016db3700,20,female,0,2,29,Clear_profit_side,high_enforcement,90,0,-,left,9,16,1000,1.45,left,left,20,1,1,0.129,10,15,793,1553,1.5530000000000002,3.003,27-05-2020,17:15:14,0
5c8d2f74e775150016db3700,20,female,0,2,30,Clear_profit_side,high_enforcement,90,0,-,left,9,16,1000,1.45,left,left,20,1,1,0.147,10,15,793,1553,1.5530000000000002,3.003,27-05-2020,17:15:14,0
5c8d2f74e775150016db3700,20,female,0,2,31,Ambigous_left,high_enforcement,90,1,20,left,11,14,1000,1.45,left,left,20,-19,1,0.141,10,15,793,1553,1.5530000000000002,3.003,27-05-2020,17:15:14,0
5c8d2f74e775150016db3700,20,female,0,2,32,Ambigous_left,high_enforcement,90,1,20,left,11,14,1000,1.45,left,left,20,-19,1,0.16899999999999998,10,15,793,1553,1.5530000000000002,3.003,27-05-2020,17:15:14,0
5c8d2f74e775150016db3700,20,female,0,2,33,Ambigous_left,high_enforcement,90,1,20,left,11,14,1000,1.45,left,right,-19,0,0,0.16,10,15,793,1553,1.5530000000000002,3.003,27-05-2020,17:15:14,1
5c8d2f74e775150016db3700,20,female,0,2,38,Clear_profit_side,high_enforcement,90,1,20,left,9,16,1000,1.45,left,left,20,-19,1,0.141,10,15,793,1553,1.5530000000000002,3.003,27-05-2020,17:15:14,0
5c8d2f74e775150016db3700,20,female,0,2,40,Clear_profit_side,high_enforcement,90,1,20,left,9,16,1000,1.45,left,left,20,-19,1,0.139,10,15,793,1553,1.5530000000000002,3.003,27-05-2020,17:15:14,0
5c8d2f74e775150016db3700,20,female,0,2,42,Ambigous_left,high_enforcement,90,0,-,left,11,14,1000,1.45,left,left,20,1,1,0.135,10,15,793,1553,1.5530000000000002,3.003,27-05-2020,17:15:14,0
5c8d2f74e775150016db3700,20,female,0,2,43,Ambigous_left,high_enforcement,90,1,20,left,11,14,1000,1.45,left,left,20,-19,1,0.13699999999999998,10,15,793,1553,1.5530000000000002,3.003,27-05-2020,17:15:14,0
5c8d2f74e775150016db3700,20,female,0,2,45,Ambigous_left,high_enforcement,90,1,20,left,11,14,1000,1.45,left,left,20,-19,1,0.11599999999999999,10,15,793,1553,1.5530000000000002,3.003,27-05-2020,17:15:14,0
5c8d2f74e775150016db3700,20,female,0,2,46,Ambigous_left,high_enforcement,90,1,20,left,11,14,1000,1.45,left,left,20,-19,1,0.149,10,15,793,1553,1.5530000000000002,3.003,27-05-2020,17:15:14,0
5c8d2f74e775150016db3700,20,female,0,2,52,Ambigous_left,high_enforcement,90,1,20,left,11,14,1000,1.45,left,left,20,-19,1,0.136,10,15,793,1553,1.5530000000000002,3.003,27-05-2020,17:15:14,0
5c8d2f74e775150016db3700,20,female,0,2,55,Clear_profit_side,high_enforcement,90,1,20,left,9,16,1000,1.45,left,left,20,-19,1,0.157,10,15,793,1553,1.5530000000000002,3.003,27-05-2020,17:15:14,0
5c8d2f74e775150016db3700,20,female,0,2,56,Ambigous_left,high_enforcement,90,1,20,left,11,14,1000,1.45,left,left,20,-19,1,0.17300000000000001,10,15,793,1553,1.5530000000000002,3.003,27-05-2020,17:15:14,0
5c8d2f74e775150016db3700,20,female,0,2,58,Ambigous_left,high_enforcement,90,1,20,left,11,14,1000,1.45,left,left,20,-19,1,0.154,10,15,793,1553,1.5530000000000002,3.003,27-05-2020,17:15:14,0
5c8d2f74e775150016db3700,20,female,0,2,59,Clear_profit_side,high_enforcement,90,1,20,left,9,16,1000,1.45,left,left,20,-19,1,0.147,10,15,793,1553,1.5530000000000002,3.003,27-05-2020,17:15:14,0
5c8d2f74e775150016db3700,20,female,0,2,60,Ambigous_left,high_enforcement,90,1,20,left,11,14,1000,1.45,left,left,20,-19,1,0.14,10,15,793,1553,1.5530000000000002,3.003,27-05-2020,17:15:14,0
5c8d2f74e775150016db3700,20,female,0,2,65,Ambigous_left,high_enforcement,90,1,20,left,11,14,1000,1.45,left,left,20,-19,1,0.142,10,15,793,1553,1.5530000000000002,3.003,27-05-2020,17:15:14,0
5c8d2f74e775150016db3700,20,female,0,2,67,Ambigous_left,high_enforcement,90,1,20,left,11,14,1000,1.45,left,left,20,-19,1,0.133,10,15,793,1553,1.5530000000000002,3.003,27-05-2020,17:15:14,0
5c8d2f74e775150016db3700,20,female,0,2,68,Clear_profit_side,high_enforcement,90,0,-,left,9,16,1000,1.45,left,left,20,1,1,0.132,10,15,793,1553,1.5530000000000002,3.003,27-05-2020,17:15:14,0
5c8d2f74e775150016db3700,20,female,0,2,70,Clear_profit_side,high_enforcement,90,1,20,left,9,16,1000,1.45,left,left,20,-19,1,0.125,10,15,793,1553,1.5530000000000002,3.003,27-05-2020,17:15:14,0
5c8d2f74e775150016db3700,20,female,0,2,72,Clear_profit_side,high_enforcement,90,1,20,left,9,16,1000,1.45,left,left,20,-19,1,0.136,10,15,793,1553,1.5530000000000002,3.003,27-05-2020,17:15:14,0
5c8d2f74e775150016db3700,20,female,0,2,79,Ambigous_left,high_enforcement,90,1,20,left,11,14,1000,1.45,left,left,20,-19,1,0.166,10,15,793,1553,1.5530000000000002,3.003,27-05-2020,17:15:14,0
5c8d2f74e775150016db3700,20,female,0,2,80,Clear_profit_side,high_enforcement,90,1,20,left,9,16,1000,1.45,left,left,20,-19,1,0.153,10,15,793,1553,1.5530000000000002,3.003,27-05-2020,17:15:14,0
5c8d2f74e775150016db3700,20,female,0,2,81,Ambigous_left,high_enforcement,90,1,20,left,11,14,1000,1.45,left,left,20,-19,1,0.138,10,15,793,1553,1.5530000000000002,3.003,27-05-2020,17:15:14,0
5c8d2f74e775150016db3700,20,female,0,2,85,Ambigous_left,high_enforcement,90,1,20,left,11,14,1000,1.45,left,left,20,-19,1,0.139,10,15,793,1553,1.5530000000000002,3.003,27-05-2020,17:15:14,0
5c8d2f74e775150016db3700,20,female,0,2,87,Clear_profit_side,high_enforcement,90,1,20,left,9,16,1000,1.45,left,left,20,-19,1,0.13699999999999998,10,15,793,1553,1.5530000000000002,3.003,27-05-2020,17:15:14,0
5c8d2f74e775150016db3700,20,female,0,2,92,Ambigous_left,high_enforcement,90,1,20,left,11,14,1000,1.45,left,left,20,-19,1,0.16,10,15,793,1553,1.5530000000000002,3.003,27-05-2020,17:15:14,0
5c8d2f74e775150016db3700,20,female,0,2,93,Clear_profit_side,high_enforcement,90,1,20,left,9,16,1000,1.45,left,left,20,-19,1,0.188,10,15,793,1553,1.5530000000000002,3.003,27-05-2020,17:15:14,0
5c8d2f74e775150016db3700,20,female,0,2,97,Ambigous_left,high_enforcement,90,1,20,left,11,14,1000,1.45,left,left,20,-19,1,0.207,10,15,793,1553,1.5530000000000002,3.003,27-05-2020,17:15:14,0
5c8d2f74e775150016db3700,20,female,0,2,98,Ambigous_left,high_enforcement,90,1,20,left,11,14,1000,1.45,left,left,20,-19,1,0.165,10,15,793,1553,1.5530000000000002,3.003,27-05-2020,17:15:14,0
5c8d2f74e775150016db3700,20,female,0,2,99,Ambigous_left,high_enforcement,90,1,20,left,11,14,1000,1.45,left,right,-19,0,0,0.188,10,15,793,1553,1.5530000000000002,3.003,27-05-2020,17:15:14,1
5c8d2f74e775150016db3700,20,female,0,2,100,Ambigous_left,high_enforcement,90,0,-,left,11,14,1000,1.45,left,left,20,1,1,0.18899999999999997,10,15,793,1553,1.5530000000000002,3.003,27-05-2020,17:15:14,0
5c91c01129b394001a4e473b,23,male,1,1,1,Clear_profit_side,no_enforcement2,0,0,-,right,16,9,1000,1.45,right,left,1,2,0,0.551,8,17,137,283,0.28300000000000003,1.733,27-05-2020,17:16:4,1
5c91c01129b394001a4e473b,23,male,1,1,3,Ambigous_right,no_enforcement2,0,0,-,right,14,11,1000,1.45,right,right,2,1,1,0.297,8,17,137,283,0.28300000000000003,1.733,27-05-2020,17:16:4,0
5c91c01129b394001a4e473b,23,male,1,1,5,Ambigous_right,no_enforcement2,0,0,-,right,14,11,1000,1.45,right,right,2,1,1,0.233,8,17,137,283,0.28300000000000003,1.733,27-05-2020,17:16:4,0
5c91c01129b394001a4e473b,23,male,1,1,10,Clear_profit_side,no_enforcement2,0,0,-,right,16,9,1000,1.45,right,right,2,1,1,0.154,8,17,137,283,0.28300000000000003,1.733,27-05-2020,17:16:4,0
5c91c01129b394001a4e473b,23,male,1,1,16,Clear_profit_side,no_enforcement2,0,0,-,right,16,9,1000,1.45,right,right,2,1,1,0.361,8,17,137,283,0.28300000000000003,1.733,27-05-2020,17:16:4,0
5c91c01129b394001a4e473b,23,male,1,1,17,Clear_profit_side,no_enforcement2,0,0,-,right,16,9,1000,1.45,right,right,2,1,1,0.12300000000000001,8,17,137,283,0.28300000000000003,1.733,27-05-2020,17:16:4,0
5c91c01129b394001a4e473b,23,male,1,1,18,Ambigous_right,no_enforcement2,0,0,-,right,14,11,1000,1.45,right,right,2,1,1,0.501,8,17,137,283,0.28300000000000003,1.733,27-05-2020,17:16:4,0
5c91c01129b394001a4e473b,23,male,1,1,19,Clear_profit_side,no_enforcement2,0,0,-,right,16,9,1000,1.45,right,right,2,1,1,0.152,8,17,137,283,0.28300000000000003,1.733,27-05-2020,17:16:4,0
5c91c01129b394001a4e473b,23,male,1,1,21,Ambigous_right,no_enforcement2,0,0,-,right,14,11,1000,1.45,right,right,2,1,1,0.124,8,17,137,283,0.28300000000000003,1.733,27-05-2020,17:16:4,0
5c91c01129b394001a4e473b,23,male,1,1,25,Ambigous_right,no_enforcement2,0,0,-,right,14,11,1000,1.45,right,right,2,1,1,0.126,8,17,137,283,0.28300000000000003,1.733,27-05-2020,17:16:4,0
5c91c01129b394001a4e473b,23,male,1,1,29,Clear_profit_side,no_enforcement2,0,0,-,right,16,9,1000,1.45,right,right,2,1,1,0.107,8,17,137,283,0.28300000000000003,1.733,27-05-2020,17:16:4,0
5c91c01129b394001a4e473b,23,male,1,1,31,Ambigous_right,no_enforcement2,0,0,-,right,14,11,1000,1.45,right,right,2,1,1,0.153,8,17,137,283,0.28300000000000003,1.733,27-05-2020,17:16:4,0
5c91c01129b394001a4e473b,23,male,1,1,32,Clear_profit_side,no_enforcement2,0,0,-,right,16,9,1000,1.45,right,right,2,1,1,0.107,8,17,137,283,0.28300000000000003,1.733,27-05-2020,17:16:4,0
5c91c01129b394001a4e473b,23,male,1,1,33,Ambigous_right,no_enforcement2,0,0,-,right,14,11,1000,1.45,right,right,2,1,1,0.1,8,17,137,283,0.28300000000000003,1.733,27-05-2020,17:16:4,0
5c91c01129b394001a4e473b,23,male,1,1,34,Ambigous_right,no_enforcement2,0,0,-,right,14,11,1000,1.45,right,left,1,2,0,0.141,8,17,137,283,0.28300000000000003,1.733,27-05-2020,17:16:4,1
5c91c01129b394001a4e473b,23,male,1,1,36,Ambigous_right,no_enforcement2,0,0,-,right,14,11,1000,1.45,right,right,2,1,1,0.125,8,17,137,283,0.28300000000000003,1.733,27-05-2020,17:16:4,0
5c91c01129b394001a4e473b,23,male,1,1,37,Ambigous_right,no_enforcement2,0,0,-,right,14,11,1000,1.45,right,right,2,1,1,0.14300000000000002,8,17,137,283,0.28300000000000003,1.733,27-05-2020,17:16:4,0
5c91c01129b394001a4e473b,23,male,1,1,38,Ambigous_right,no_enforcement2,0,0,-,right,14,11,1000,1.45,right,right,2,1,1,0.14,8,17,137,283,0.28300000000000003,1.733,27-05-2020,17:16:4,0
5c91c01129b394001a4e473b,23,male,1,1,42,Ambigous_right,no_enforcement2,0,0,-,right,14,11,1000,1.45,right,right,2,1,1,0.132,8,17,137,283,0.28300000000000003,1.733,27-05-2020,17:16:4,0
5c91c01129b394001a4e473b,23,male,1,1,45,Clear_profit_side,no_enforcement2,0,0,-,right,16,9,1000,1.45,right,right,2,1,1,0.11800000000000001,8,17,137,283,0.28300000000000003,1.733,27-05-2020,17:16:4,0
5c91c01129b394001a4e473b,23,male,1,1,46,Clear_profit_side,no_enforcement2,0,0,-,right,16,9,1000,1.45,right,right,2,1,1,0.11599999999999999,8,17,137,283,0.28300000000000003,1.733,27-05-2020,17:16:4,0
5c91c01129b394001a4e473b,23,male,1,1,47,Ambigous_right,no_enforcement2,0,0,-,right,14,11,1000,1.45,right,left,1,2,0,0.16,8,17,137,283,0.28300000000000003,1.733,27-05-2020,17:16:4,1
5c91c01129b394001a4e473b,23,male,1,1,50,Ambigous_right,no_enforcement2,0,0,-,right,14,11,1000,1.45,right,right,2,1,1,0.209,8,17,137,283,0.28300000000000003,1.733,27-05-2020,17:16:4,0
5c91c01129b394001a4e473b,23,male,1,1,51,Clear_profit_side,no_enforcement2,0,0,-,right,16,9,1000,1.45,right,right,2,1,1,0.13,8,17,137,283,0.28300000000000003,1.733,27-05-2020,17:16:4,0
5c91c01129b394001a4e473b,23,male,1,1,52,Ambigous_right,no_enforcement2,0,0,-,right,14,11,1000,1.45,right,right,2,1,1,0.12,8,17,137,283,0.28300000000000003,1.733,27-05-2020,17:16:4,0
5c91c01129b394001a4e473b,23,male,1,1,54,Ambigous_right,no_enforcement2,0,0,-,right,14,11,1000,1.45,right,right,2,1,1,0.172,8,17,137,283,0.28300000000000003,1.733,27-05-2020,17:16:4,0
5c91c01129b394001a4e473b,23,male,1,1,58,Ambigous_right,no_enforcement2,0,0,-,right,14,11,1000,1.45,right,right,2,1,1,0.28800000000000003,8,17,137,283,0.28300000000000003,1.733,27-05-2020,17:16:4,0
5c91c01129b394001a4e473b,23,male,1,1,59,Ambigous_right,no_enforcement2,0,0,-,right,14,11,1000,1.45,right,right,2,1,1,0.265,8,17,137,283,0.28300000000000003,1.733,27-05-2020,17:16:4,0
5c91c01129b394001a4e473b,23,male,1,1,61,Ambigous_right,no_enforcement2,0,0,-,right,14,11,1000,1.45,right,right,2,1,1,0.145,8,17,137,283,0.28300000000000003,1.733,27-05-2020,17:16:4,0
5c91c01129b394001a4e473b,23,male,1,1,62,Clear_profit_side,no_enforcement2,0,0,-,right,16,9,1000,1.45,right,right,2,1,1,0.08800000000000001,8,17,137,283,0.28300000000000003,1.733,27-05-2020,17:16:4,0
5c91c01129b394001a4e473b,23,male,1,1,66,Ambigous_right,no_enforcement2,0,0,-,right,14,11,1000,1.45,right,right,2,1,1,0.139,8,17,137,283,0.28300000000000003,1.733,27-05-2020,17:16:4,0
5c91c01129b394001a4e473b,23,male,1,1,70,Ambigous_right,no_enforcement2,0,0,-,right,14,11,1000,1.45,right,right,2,1,1,0.134,8,17,137,283,0.28300000000000003,1.733,27-05-2020,17:16:4,0
5c91c01129b394001a4e473b,23,male,1,1,72,Ambigous_right,no_enforcement2,0,0,-,right,14,11,1000,1.45,right,left,1,2,0,0.12,8,17,137,283,0.28300000000000003,1.733,27-05-2020,17:16:4,1
5c91c01129b394001a4e473b,23,male,1,1,76,Clear_profit_side,no_enforcement2,0,0,-,right,16,9,1000,1.45,right,right,2,1,1,0.305,8,17,137,283,0.28300000000000003,1.733,27-05-2020,17:16:4,0
5c91c01129b394001a4e473b,23,male,1,1,78,Clear_profit_side,no_enforcement2,0,0,-,right,16,9,1000,1.45,right,right,2,1,1,0.12,8,17,137,283,0.28300000000000003,1.733,27-05-2020,17:16:4,0
5c91c01129b394001a4e473b,23,male,1,1,79,Clear_profit_side,no_enforcement2,0,0,-,right,16,9,1000,1.45,right,right,2,1,1,0.10800000000000001,8,17,137,283,0.28300000000000003,1.733,27-05-2020,17:16:4,0
5c91c01129b394001a4e473b,23,male,1,1,80,Clear_profit_side,no_enforcement2,0,0,-,right,16,9,1000,1.45,right,right,2,1,1,0.228,8,17,137,283,0.28300000000000003,1.733,27-05-2020,17:16:4,0
5c91c01129b394001a4e473b,23,male,1,1,85,Clear_profit_side,no_enforcement2,0,0,-,right,16,9,1000,1.45,right,right,2,1,1,0.132,8,17,137,283,0.28300000000000003,1.733,27-05-2020,17:16:4,0
5c91c01129b394001a4e473b,23,male,1,1,88,Ambigous_right,no_enforcement2,0,0,-,right,14,11,1000,1.45,right,left,1,2,0,0.207,8,17,137,283,0.28300000000000003,1.733,27-05-2020,17:16:4,1
5c91c01129b394001a4e473b,23,male,1,1,92,Ambigous_right,no_enforcement2,0,0,-,right,14,11,1000,1.45,right,right,2,1,1,0.122,8,17,137,283,0.28300000000000003,1.733,27-05-2020,17:16:4,0
5c91c01129b394001a4e473b,23,male,1,1,96,Ambigous_right,no_enforcement2,0,0,-,right,14,11,1000,1.45,right,left,1,2,0,0.149,8,17,137,283,0.28300000000000003,1.733,27-05-2020,17:16:4,1
5c91c01129b394001a4e473b,23,male,1,2,1,Clear_profit_side,no_enforcement2,0,0,-,right,16,9,1000,1.45,right,right,2,1,1,0.096,9,17,146,283,0.28300000000000003,1.733,27-05-2020,17:16:4,0
5c91c01129b394001a4e473b,23,male,1,2,2,Ambigous_right,no_enforcement2,0,0,-,right,14,11,1000,1.45,right,right,2,1,1,0.217,9,17,146,283,0.28300000000000003,1.733,27-05-2020,17:16:4,0
5c91c01129b394001a4e473b,23,male,1,2,4,Clear_profit_side,no_enforcement2,0,0,-,right,16,9,1000,1.45,right,right,2,1,1,0.10300000000000001,9,17,146,283,0.28300000000000003,1.733,27-05-2020,17:16:4,0
5c91c01129b394001a4e473b,23,male,1,2,5,Ambigous_right,no_enforcement2,0,0,-,right,14,11,1000,1.45,right,right,2,1,1,0.084,9,17,146,283,0.28300000000000003,1.733,27-05-2020,17:16:4,0
5c91c01129b394001a4e473b,23,male,1,2,10,Clear_profit_side,no_enforcement2,0,0,-,right,16,9,1000,1.45,right,right,2,1,1,0.099,9,17,146,283,0.28300000000000003,1.733,27-05-2020,17:16:4,0
5c91c01129b394001a4e473b,23,male,1,2,12,Ambigous_right,no_enforcement2,0,0,-,right,14,11,1000,1.45,right,right,2,1,1,0.081,9,17,146,283,0.28300000000000003,1.733,27-05-2020,17:16:4,0
5c91c01129b394001a4e473b,23,male,1,2,15,Ambigous_right,no_enforcement2,0,0,-,right,14,11,1000,1.45,right,right,2,1,1,0.105,9,17,146,283,0.28300000000000003,1.733,27-05-2020,17:16:4,0
5c91c01129b394001a4e473b,23,male,1,2,16,Ambigous_right,no_enforcement2,0,0,-,right,14,11,1000,1.45,right,right,2,1,1,0.107,9,17,146,283,0.28300000000000003,1.733,27-05-2020,17:16:4,0
5c91c01129b394001a4e473b,23,male,1,2,18,Ambigous_right,no_enforcement2,0,0,-,right,14,11,1000,1.45,right,left,1,2,0,0.18,9,17,146,283,0.28300000000000003,1.733,27-05-2020,17:16:4,1
5c91c01129b394001a4e473b,23,male,1,2,19,Clear_profit_side,no_enforcement2,0,0,-,right,16,9,1000,1.45,right,right,2,1,1,0.10400000000000001,9,17,146,283,0.28300000000000003,1.733,27-05-2020,17:16:4,0
5c91c01129b394001a4e473b,23,male,1,2,20,Ambigous_right,no_enforcement2,0,0,-,right,14,11,1000,1.45,right,right,2,1,1,0.11900000000000001,9,17,146,283,0.28300000000000003,1.733,27-05-2020,17:16:4,0
