user_id,age,gender,attention,block_number,trial_number,trial_type,conditions,p_inspection,inspection,fine_size,profitable_side,true_side,choice,trial_payoff,alternative_payoff,choice_correct,rt_choice,block_errors,final_errors,block_payoff,final_payoff,bonus,final_payment,error
56100d727ffc8a0005811338,43,female,1,1,1,Clear_not_profit_side,3,0,0,0,left,right,right,1,2,1,0.498,6,1,141,277,0.277,1.7269999999999999,0
56100d727ffc8a0005811338,43,female,1,1,2,Clear_not_profit_side,3,0,0,0,left,right,right,1,2,1,0.513,6,1,141,277,0.277,1.7269999999999999,0
56100d727ffc8a0005811338,43,female,1,1,5,Ambigous_right,3,0,0,0,left,right,right,1,2,1,0.345,6,1,141,277,0.277,1.7269999999999999,0
56100d727ffc8a0005811338,43,female,1,1,7,Clear_not_profit_side,3,0,0,0,left,right,right,1,2,1,0.236,6,1,141,277,0.277,1.7269999999999999,0
56100d727ffc8a0005811338,43,female,1,1,8,Clear_not_profit_side,3,0,0,0,left,right,right,1,2,1,0.652,6,1,141,277,0.277,1.7269999999999999,0
56100d727ffc8a0005811338,43,female,1,1,9,Clear_not_profit_side,3,0,0,0,left,right,right,1,2,1,0.335,6,1,141,277,0.277,1.7269999999999999,0
56100d727ffc8a0005811338,43,female,1,1,10,Clear_not_profit_side,3,0,0,0,left,right,right,1,2,1,0.233,6,1,141,277,0.277,1.7269999999999999,0
56100d727ffc8a0005811338,43,female,1,1,11,Ambigous_right,3,0,0,0,left,right,right,1,2,1,0.407,6,1,141,277,0.277,1.7269999999999999,0
56100d727ffc8a0005811338,43,female,1,1,13,Ambigous_right,3,0,0,0,left,right,right,1,2,1,0.294,6,1,141,277,0.277,1.7269999999999999,0
56100d727ffc8a0005811338,43,female,1,1,14,Ambigous_right,3,0,0,0,left,right,right,1,2,1,0.461,6,1,141,277,0.277,1.7269999999999999,0
56100d727ffc8a0005811338,43,female,1,1,17,Ambigous_right,3,0,0,0,left,right,left,2,1,0,0.235,6,1,141,277,0.277,1.7269999999999999,1
56100d727ffc8a0005811338,43,female,1,1,18,Clear_not_profit_side,3,0,0,0,left,right,right,1,2,1,0.31,6,1,141,277,0.277,1.7269999999999999,0
56100d727ffc8a0005811338,43,female,1,1,19,Ambigous_right,3,0,0,0,left,right,right,1,2,1,0.31,6,1,141,277,0.277,1.7269999999999999,0
56100d727ffc8a0005811338,43,female,1,1,20,Ambigous_right,3,0,0,0,left,right,right,1,2,1,0.491,6,1,141,277,0.277,1.7269999999999999,0
56100d727ffc8a0005811338,43,female,1,1,21,Clear_not_profit_side,3,0,0,0,left,right,right,1,2,1,0.28800000000000003,6,1,141,277,0.277,1.7269999999999999,0
56100d727ffc8a0005811338,43,female,1,1,22,Clear_not_profit_side,3,0,0,0,left,right,right,1,2,1,0.612,6,1,141,277,0.277,1.7269999999999999,0
56100d727ffc8a0005811338,43,female,1,1,23,Ambigous_right,3,0,0,0,left,right,right,1,2,1,0.224,6,1,141,277,0.277,1.7269999999999999,0
56100d727ffc8a0005811338,43,female,1,1,24,Ambigous_right,3,0,0,0,left,right,right,1,2,1,0.189,6,1,141,277,0.277,1.7269999999999999,0
56100d727ffc8a0005811338,43,female,1,1,26,Ambigous_right,3,0,0,0,left,right,right,1,2,1,0.275,6,1,141,277,0.277,1.7269999999999999,0
56100d727ffc8a0005811338,43,female,1,1,28,Clear_not_profit_side,3,0,0,0,left,right,right,1,2,1,0.208,6,1,141,277,0.277,1.7269999999999999,0
56100d727ffc8a0005811338,43,female,1,1,29,Ambigous_right,3,0,0,0,left,right,right,1,2,1,0.534,6,1,141,277,0.277,1.7269999999999999,0
56100d727ffc8a0005811338,43,female,1,1,32,Clear_not_profit_side,3,0,0,0,left,right,right,1,2,1,0.214,6,1,141,277,0.277,1.7269999999999999,0
56100d727ffc8a0005811338,43,female,1,1,33,Clear_not_profit_side,3,0,0,0,left,right,right,1,2,1,0.454,6,1,141,277,0.277,1.7269999999999999,0
56100d727ffc8a0005811338,43,female,1,1,35,Clear_not_profit_side,3,0,0,0,left,right,right,1,2,1,0.208,6,1,141,277,0.277,1.7269999999999999,0
56100d727ffc8a0005811338,43,female,1,1,37,Clear_not_profit_side,3,0,0,0,left,right,right,1,2,1,0.258,6,1,141,277,0.277,1.7269999999999999,0
56100d727ffc8a0005811338,43,female,1,1,38,Clear_not_profit_side,3,0,0,0,left,right,left,2,1,0,0.618,6,1,141,277,0.277,1.7269999999999999,1
56100d727ffc8a0005811338,43,female,1,1,39,Clear_not_profit_side,3,0,0,0,left,right,right,1,2,1,0.263,6,1,141,277,0.277,1.7269999999999999,0
56100d727ffc8a0005811338,43,female,1,1,40,Clear_not_profit_side,3,0,0,0,left,right,right,1,2,1,0.245,6,1,141,277,0.277,1.7269999999999999,0
56100d727ffc8a0005811338,43,female,1,1,42,Clear_not_profit_side,3,0,0,0,left,right,right,1,2,1,0.203,6,1,141,277,0.277,1.7269999999999999,0
56100d727ffc8a0005811338,43,female,1,1,45,Ambigous_right,3,0,0,0,left,right,right,1,2,1,0.26,6,1,141,277,0.277,1.7269999999999999,0
56100d727ffc8a0005811338,43,female,1,1,46,Clear_not_profit_side,3,0,0,0,left,right,right,1,2,1,0.234,6,1,141,277,0.277,1.7269999999999999,0
56100d727ffc8a0005811338,43,female,1,1,47,Ambigous_right,3,0,0,0,left,right,right,1,2,1,0.214,6,1,141,277,0.277,1.7269999999999999,0
56100d727ffc8a0005811338,43,female,1,1,49,Ambigous_right,3,0,0,0,left,right,right,1,2,1,0.236,6,1,141,277,0.277,1.7269999999999999,0
56100d727ffc8a0005811338,43,female,1,1,51,Clear_not_profit_side,3,0,0,0,left,right,right,1,2,1,0.181,6,1,141,277,0.277,1.7269999999999999,0
56100d727ffc8a0005811338,43,female,1,1,56,Clear_not_profit_side,3,0,0,0,left,right,right,1,2,1,0.217,6,1,141,277,0.277,1.7269999999999999,0
56100d727ffc8a0005811338,43,female,1,1,58,Clear_not_profit_side,3,0,0,0,left,right,right,1,2,1,0.199,6,1,141,277,0.277,1.7269999999999999,0
56100d727ffc8a0005811338,43,female,1,1,60,Clear_not_profit_side,3,0,0,0,left,right,right,1,2,1,0.203,6,1,141,277,0.277,1.7269999999999999,0
56100d727ffc8a0005811338,43,female,1,1,62,Clear_not_profit_side,3,0,0,0,left,right,right,1,2,1,0.268,6,1,141,277,0.277,1.7269999999999999,0
56100d727ffc8a0005811338,43,female,1,1,64,Ambigous_right,3,0,0,0,left,right,right,1,2,1,0.21,6,1,141,277,0.277,1.7269999999999999,0
56100d727ffc8a0005811338,43,female,1,1,65,Ambigous_right,3,0,0,0,left,right,right,1,2,1,0.545,6,1,141,277,0.277,1.7269999999999999,0
56100d727ffc8a0005811338,43,female,1,1,66,Clear_not_profit_side,3,0,0,0,left,right,right,1,2,1,0.469,6,1,141,277,0.277,1.7269999999999999,0
56100d727ffc8a0005811338,43,female,1,1,68,Ambigous_right,3,0,0,0,left,right,right,1,2,1,0.622,6,1,141,277,0.277,1.7269999999999999,0
56100d727ffc8a0005811338,43,female,1,1,69,Clear_not_profit_side,3,0,0,0,left,right,right,1,2,1,0.83,6,1,141,277,0.277,1.7269999999999999,0
56100d727ffc8a0005811338,43,female,1,1,70,Clear_not_profit_side,3,0,0,0,left,right,right,1,2,1,0.18,6,1,141,277,0.277,1.7269999999999999,0
56100d727ffc8a0005811338,43,female,1,1,72,Ambigous_right,3,0,0,0,left,right,right,1,2,1,0.203,6,1,141,277,0.277,1.7269999999999999,0
56100d727ffc8a0005811338,43,female,1,1,75,Ambigous_right,3,0,0,0,left,right,right,1,2,1,0.209,6,1,141,277,0.277,1.7269999999999999,0
56100d727ffc8a0005811338,43,female,1,1,76,Ambigous_right,3,0,0,0,left,right,right,1,2,1,0.782,6,1,141,277,0.277,1.7269999999999999,0
56100d727ffc8a0005811338,43,female,1,1,77,Clear_not_profit_side,3,0,0,0,left,right,right,1,2,1,0.627,6,1,141,277,0.277,1.7269999999999999,0
56100d727ffc8a0005811338,43,female,1,1,78,Clear_not_profit_side,3,0,0,0,left,right,right,1,2,1,0.669,6,1,141,277,0.277,1.7269999999999999,0
56100d727ffc8a0005811338,43,female,1,1,81,Ambigous_right,3,0,0,0,left,right,right,1,2,1,0.7240000000000001,6,1,141,277,0.277,1.7269999999999999,0
56100d727ffc8a0005811338,43,female,1,1,82,Ambigous_right,3,0,0,0,left,right,left,2,1,0,0.596,6,1,141,277,0.277,1.7269999999999999,1
56100d727ffc8a0005811338,43,female,1,1,83,Clear_not_profit_side,3,0,0,0,left,right,right,1,2,1,0.14800000000000002,6,1,141,277,0.277,1.7269999999999999,0
56100d727ffc8a0005811338,43,female,1,1,84,Ambigous_right,3,0,0,0,left,right,right,1,2,1,0.436,6,1,141,277,0.277,1.7269999999999999,0
56100d727ffc8a0005811338,43,female,1,1,87,Clear_not_profit_side,3,0,0,0,left,right,right,1,2,1,0.21,6,1,141,277,0.277,1.7269999999999999,0
56100d727ffc8a0005811338,43,female,1,1,91,Clear_not_profit_side,3,0,0,0,left,right,right,1,2,1,0.16699999999999998,6,1,141,277,0.277,1.7269999999999999,0
56100d727ffc8a0005811338,43,female,1,1,93,Clear_not_profit_side,3,0,0,0,left,right,right,1,2,1,0.124,6,1,141,277,0.277,1.7269999999999999,0
56100d727ffc8a0005811338,43,female,1,1,96,Ambigous_right,3,0,0,0,left,right,right,1,2,1,0.123,6,1,141,277,0.277,1.7269999999999999,0
56100d727ffc8a0005811338,43,female,1,1,98,Ambigous_right,3,0,0,0,left,right,right,1,2,1,0.156,6,1,141,277,0.277,1.7269999999999999,0
56100d727ffc8a0005811338,43,female,1,1,99,Clear_not_profit_side,3,0,0,0,left,right,right,1,2,1,0.153,6,1,141,277,0.277,1.7269999999999999,0
56100d727ffc8a0005811338,43,female,1,2,3,Clear_not_profit_side,3,0,0,0,left,right,right,1,2,1,0.157,7,1,136,277,0.277,1.7269999999999999,0
56100d727ffc8a0005811338,43,female,1,2,4,Clear_not_profit_side,3,0,0,0,left,right,right,1,2,1,0.188,7,1,136,277,0.277,1.7269999999999999,0
56100d727ffc8a0005811338,43,female,1,2,6,Ambigous_right,3,0,0,0,left,right,right,1,2,1,0.112,7,1,136,277,0.277,1.7269999999999999,0
56100d727ffc8a0005811338,43,female,1,2,7,Clear_not_profit_side,3,0,0,0,left,right,right,1,2,1,0.173,7,1,136,277,0.277,1.7269999999999999,0
56100d727ffc8a0005811338,43,female,1,2,8,Clear_not_profit_side,3,0,0,0,left,right,right,1,2,1,0.162,7,1,136,277,0.277,1.7269999999999999,0
56100d727ffc8a0005811338,43,female,1,2,11,Ambigous_right,3,0,0,0,left,right,right,1,2,1,0.13,7,1,136,277,0.277,1.7269999999999999,0
56100d727ffc8a0005811338,43,female,1,2,13,Ambigous_right,3,0,0,0,left,right,right,1,2,1,0.31,7,1,136,277,0.277,1.7269999999999999,0
56100d727ffc8a0005811338,43,female,1,2,14,Ambigous_right,3,0,0,0,left,right,right,1,2,1,0.175,7,1,136,277,0.277,1.7269999999999999,0
56100d727ffc8a0005811338,43,female,1,2,16,Clear_not_profit_side,3,0,0,0,left,right,right,1,2,1,0.145,7,1,136,277,0.277,1.7269999999999999,0
56100d727ffc8a0005811338,43,female,1,2,17,Clear_not_profit_side,3,0,0,0,left,right,right,1,2,1,0.115,7,1,136,277,0.277,1.7269999999999999,0
56100d727ffc8a0005811338,43,female,1,2,18,Clear_not_profit_side,3,0,0,0,left,right,right,1,2,1,0.13699999999999998,7,1,136,277,0.277,1.7269999999999999,0
56100d727ffc8a0005811338,43,female,1,2,19,Clear_not_profit_side,3,0,0,0,left,right,right,1,2,1,0.28,7,1,136,277,0.277,1.7269999999999999,0
56100d727ffc8a0005811338,43,female,1,2,22,Clear_not_profit_side,3,0,0,0,left,right,right,1,2,1,0.13,7,1,136,277,0.277,1.7269999999999999,0
56100d727ffc8a0005811338,43,female,1,2,23,Ambigous_right,3,0,0,0,left,right,right,1,2,1,0.19,7,1,136,277,0.277,1.7269999999999999,0
56100d727ffc8a0005811338,43,female,1,2,24,Clear_not_profit_side,3,0,0,0,left,right,right,1,2,1,0.165,7,1,136,277,0.277,1.7269999999999999,0
56100d727ffc8a0005811338,43,female,1,2,26,Clear_not_profit_side,3,0,0,0,left,right,right,1,2,1,0.247,7,1,136,277,0.277,1.7269999999999999,0
56100d727ffc8a0005811338,43,female,1,2,28,Ambigous_right,3,0,0,0,left,right,right,1,2,1,0.124,7,1,136,277,0.277,1.7269999999999999,0
56100d727ffc8a0005811338,43,female,1,2,29,Ambigous_right,3,0,0,0,left,right,right,1,2,1,0.224,7,1,136,277,0.277,1.7269999999999999,0
56100d727ffc8a0005811338,43,female,1,2,32,Ambigous_right,3,0,0,0,left,right,right,1,2,1,0.166,7,1,136,277,0.277,1.7269999999999999,0
56100d727ffc8a0005811338,43,female,1,2,36,Clear_not_profit_side,3,0,0,0,left,right,right,1,2,1,0.203,7,1,136,277,0.277,1.7269999999999999,0
56100d727ffc8a0005811338,43,female,1,2,37,Ambigous_right,3,0,0,0,left,right,right,1,2,1,0.168,7,1,136,277,0.277,1.7269999999999999,0
56100d727ffc8a0005811338,43,female,1,2,38,Clear_not_profit_side,3,0,0,0,left,right,right,1,2,1,0.103,7,1,136,277,0.277,1.7269999999999999,0
56100d727ffc8a0005811338,43,female,1,2,39,Clear_not_profit_side,3,0,0,0,left,right,right,1,2,1,0.111,7,1,136,277,0.277,1.7269999999999999,0
56100d727ffc8a0005811338,43,female,1,2,40,Clear_not_profit_side,3,0,0,0,left,right,right,1,2,1,0.132,7,1,136,277,0.277,1.7269999999999999,0
56100d727ffc8a0005811338,43,female,1,2,43,Clear_not_profit_side,3,0,0,0,left,right,right,1,2,1,0.215,7,1,136,277,0.277,1.7269999999999999,0
56100d727ffc8a0005811338,43,female,1,2,44,Ambigous_right,3,0,0,0,left,right,left,2,1,0,0.211,7,1,136,277,0.277,1.7269999999999999,1
56100d727ffc8a0005811338,43,female,1,2,45,Ambigous_right,3,0,0,0,left,right,right,1,2,1,0.15,7,1,136,277,0.277,1.7269999999999999,0
56100d727ffc8a0005811338,43,female,1,2,46,Ambigous_right,3,0,0,0,left,right,right,1,2,1,0.205,7,1,136,277,0.277,1.7269999999999999,0
56100d727ffc8a0005811338,43,female,1,2,50,Ambigous_right,3,0,0,0,left,right,right,1,2,1,0.174,7,1,136,277,0.277,1.7269999999999999,0
56100d727ffc8a0005811338,43,female,1,2,51,Ambigous_right,3,0,0,0,left,right,right,1,2,1,0.318,7,1,136,277,0.277,1.7269999999999999,0
56100d727ffc8a0005811338,43,female,1,2,54,Clear_not_profit_side,3,0,0,0,left,right,right,1,2,1,0.319,7,1,136,277,0.277,1.7269999999999999,0
56100d727ffc8a0005811338,43,female,1,2,55,Clear_not_profit_side,3,0,0,0,left,right,right,1,2,1,0.113,7,1,136,277,0.277,1.7269999999999999,0
56100d727ffc8a0005811338,43,female,1,2,56,Clear_not_profit_side,3,0,0,0,left,right,right,1,2,1,0.111,7,1,136,277,0.277,1.7269999999999999,0
56100d727ffc8a0005811338,43,female,1,2,58,Clear_not_profit_side,3,0,0,0,left,right,right,1,2,1,0.199,7,1,136,277,0.277,1.7269999999999999,0
56100d727ffc8a0005811338,43,female,1,2,60,Ambigous_right,3,0,0,0,left,right,right,1,2,1,0.17,7,1,136,277,0.277,1.7269999999999999,0
56100d727ffc8a0005811338,43,female,1,2,61,Clear_not_profit_side,3,0,0,0,left,right,right,1,2,1,0.308,7,1,136,277,0.277,1.7269999999999999,0
56100d727ffc8a0005811338,43,female,1,2,62,Clear_not_profit_side,3,0,0,0,left,right,right,1,2,1,0.129,7,1,136,277,0.277,1.7269999999999999,0
56100d727ffc8a0005811338,43,female,1,2,63,Clear_not_profit_side,3,0,0,0,left,right,right,1,2,1,0.112,7,1,136,277,0.277,1.7269999999999999,0
56100d727ffc8a0005811338,43,female,1,2,64,Clear_not_profit_side,3,0,0,0,left,right,right,1,2,1,0.109,7,1,136,277,0.277,1.7269999999999999,0
56100d727ffc8a0005811338,43,female,1,2,65,Ambigous_right,3,0,0,0,left,right,right,1,2,1,0.248,7,1,136,277,0.277,1.7269999999999999,0
56100d727ffc8a0005811338,43,female,1,2,66,Clear_not_profit_side,3,0,0,0,left,right,right,1,2,1,0.11,7,1,136,277,0.277,1.7269999999999999,0
56100d727ffc8a0005811338,43,female,1,2,67,Clear_not_profit_side,3,0,0,0,left,right,right,1,2,1,0.095,7,1,136,277,0.277,1.7269999999999999,0
56100d727ffc8a0005811338,43,female,1,2,70,Ambigous_right,3,0,0,0,left,right,right,1,2,1,0.208,7,1,136,277,0.277,1.7269999999999999,0
56100d727ffc8a0005811338,43,female,1,2,72,Clear_not_profit_side,3,0,0,0,left,right,right,1,2,1,0.28300000000000003,7,1,136,277,0.277,1.7269999999999999,0
56100d727ffc8a0005811338,43,female,1,2,73,Ambigous_right,3,0,0,0,left,right,right,1,2,1,0.185,7,1,136,277,0.277,1.7269999999999999,0
56100d727ffc8a0005811338,43,female,1,2,75,Ambigous_right,3,0,0,0,left,right,right,1,2,1,0.132,7,1,136,277,0.277,1.7269999999999999,0
56100d727ffc8a0005811338,43,female,1,2,76,Clear_not_profit_side,3,0,0,0,left,right,right,1,2,1,0.112,7,1,136,277,0.277,1.7269999999999999,0
56100d727ffc8a0005811338,43,female,1,2,79,Clear_not_profit_side,3,0,0,0,left,right,right,1,2,1,0.16899999999999998,7,1,136,277,0.277,1.7269999999999999,0
56100d727ffc8a0005811338,43,female,1,2,80,Clear_not_profit_side,3,0,0,0,left,right,right,1,2,1,0.348,7,1,136,277,0.277,1.7269999999999999,0
56100d727ffc8a0005811338,43,female,1,2,81,Clear_not_profit_side,3,0,0,0,left,right,right,1,2,1,0.314,7,1,136,277,0.277,1.7269999999999999,0
56100d727ffc8a0005811338,43,female,1,2,82,Ambigous_right,3,0,0,0,left,right,right,1,2,1,0.955,7,1,136,277,0.277,1.7269999999999999,0
56100d727ffc8a0005811338,43,female,1,2,83,Clear_not_profit_side,3,0,0,0,left,right,right,1,2,1,0.496,7,1,136,277,0.277,1.7269999999999999,0
56100d727ffc8a0005811338,43,female,1,2,86,Ambigous_right,3,0,0,0,left,right,right,1,2,1,0.14300000000000002,7,1,136,277,0.277,1.7269999999999999,0
56100d727ffc8a0005811338,43,female,1,2,87,Ambigous_right,3,0,0,0,left,right,right,1,2,1,1.214,7,1,136,277,0.277,1.7269999999999999,0
56100d727ffc8a0005811338,43,female,1,2,91,Ambigous_right,3,0,0,0,left,right,right,1,2,1,0.3,7,1,136,277,0.277,1.7269999999999999,0
56100d727ffc8a0005811338,43,female,1,2,93,Ambigous_right,3,0,0,0,left,right,right,1,2,1,0.109,7,1,136,277,0.277,1.7269999999999999,0
56100d727ffc8a0005811338,43,female,1,2,95,Ambigous_right,3,0,0,0,left,right,right,1,2,1,0.193,7,1,136,277,0.277,1.7269999999999999,0
56100d727ffc8a0005811338,43,female,1,2,97,Clear_not_profit_side,3,0,0,0,left,right,right,1,2,1,0.181,7,1,136,277,0.277,1.7269999999999999,0
56100d727ffc8a0005811338,43,female,1,2,98,Clear_not_profit_side,3,0,0,0,left,right,right,1,2,1,0.407,7,1,136,277,0.277,1.7269999999999999,0
578f9f52eeaf6d00018d4f20,30,male,1,1,1,Clear_not_profit_side,3,0,0,0,left,right,left,2,1,0,0.234,59,1,200,398,0.398,1.848,1
578f9f52eeaf6d00018d4f20,30,male,1,1,3,Clear_not_profit_side,3,0,0,0,left,right,left,2,1,0,0.08199999999999999,59,1,200,398,0.398,1.848,1
578f9f52eeaf6d00018d4f20,30,male,1,1,5,Ambigous_right,3,0,0,0,left,right,left,2,1,0,0.097,59,1,200,398,0.398,1.848,1
578f9f52eeaf6d00018d4f20,30,male,1,1,7,Ambigous_right,3,0,0,0,left,right,left,2,1,0,0.095,59,1,200,398,0.398,1.848,1
578f9f52eeaf6d00018d4f20,30,male,1,1,8,Clear_not_profit_side,3,0,0,0,left,right,left,2,1,0,0.133,59,1,200,398,0.398,1.848,1
578f9f52eeaf6d00018d4f20,30,male,1,1,9,Clear_not_profit_side,3,0,0,0,left,right,left,2,1,0,0.035,59,1,200,398,0.398,1.848,1
578f9f52eeaf6d00018d4f20,30,male,1,1,10,Clear_not_profit_side,3,0,0,0,left,right,left,2,1,0,0.13,59,1,200,398,0.398,1.848,1
578f9f52eeaf6d00018d4f20,30,male,1,1,11,Clear_not_profit_side,3,0,0,0,left,right,left,2,1,0,0.087,59,1,200,398,0.398,1.848,1
578f9f52eeaf6d00018d4f20,30,male,1,1,13,Clear_not_profit_side,3,0,0,0,left,right,left,2,1,0,0.039,59,1,200,398,0.398,1.848,1
578f9f52eeaf6d00018d4f20,30,male,1,1,14,Ambigous_right,3,0,0,0,left,right,left,2,1,0,0.069,59,1,200,398,0.398,1.848,1
578f9f52eeaf6d00018d4f20,30,male,1,1,16,Ambigous_right,3,0,0,0,left,right,left,2,1,0,0.107,59,1,200,398,0.398,1.848,1
578f9f52eeaf6d00018d4f20,30,male,1,1,19,Clear_not_profit_side,3,0,0,0,left,right,left,2,1,0,0.048,59,1,200,398,0.398,1.848,1
578f9f52eeaf6d00018d4f20,30,male,1,1,20,Ambigous_right,3,0,0,0,left,right,left,2,1,0,0.022,59,1,200,398,0.398,1.848,1
578f9f52eeaf6d00018d4f20,30,male,1,1,21,Ambigous_right,3,0,0,0,left,right,left,2,1,0,0.027000000000000003,59,1,200,398,0.398,1.848,1
578f9f52eeaf6d00018d4f20,30,male,1,1,22,Ambigous_right,3,0,0,0,left,right,left,2,1,0,0.05,59,1,200,398,0.398,1.848,1
578f9f52eeaf6d00018d4f20,30,male,1,1,23,Clear_not_profit_side,3,0,0,0,left,right,left,2,1,0,0.036000000000000004,59,1,200,398,0.398,1.848,1
578f9f52eeaf6d00018d4f20,30,male,1,1,25,Clear_not_profit_side,3,0,0,0,left,right,left,2,1,0,0.017,59,1,200,398,0.398,1.848,1
578f9f52eeaf6d00018d4f20,30,male,1,1,27,Ambigous_right,3,0,0,0,left,right,left,2,1,0,0.036000000000000004,59,1,200,398,0.398,1.848,1
578f9f52eeaf6d00018d4f20,30,male,1,1,28,Ambigous_right,3,0,0,0,left,right,left,2,1,0,0.022,59,1,200,398,0.398,1.848,1
578f9f52eeaf6d00018d4f20,30,male,1,1,29,Ambigous_right,3,0,0,0,left,right,left,2,1,0,0.015,59,1,200,398,0.398,1.848,1
578f9f52eeaf6d00018d4f20,30,male,1,1,33,Clear_not_profit_side,3,0,0,0,left,right,left,2,1,0,0.018000000000000002,59,1,200,398,0.398,1.848,1
578f9f52eeaf6d00018d4f20,30,male,1,1,34,Ambigous_right,3,0,0,0,left,right,left,2,1,0,0.021,59,1,200,398,0.398,1.848,1
578f9f52eeaf6d00018d4f20,30,male,1,1,39,Ambigous_right,3,0,0,0,left,right,left,2,1,0,0.017,59,1,200,398,0.398,1.848,1
578f9f52eeaf6d00018d4f20,30,male,1,1,41,Clear_not_profit_side,3,0,0,0,left,right,left,2,1,0,0.068,59,1,200,398,0.398,1.848,1
578f9f52eeaf6d00018d4f20,30,male,1,1,42,Clear_not_profit_side,3,0,0,0,left,right,left,2,1,0,0.058,59,1,200,398,0.398,1.848,1
578f9f52eeaf6d00018d4f20,30,male,1,1,43,Ambigous_right,3,0,0,0,left,right,left,2,1,0,0.012,59,1,200,398,0.398,1.848,1
578f9f52eeaf6d00018d4f20,30,male,1,1,44,Ambigous_right,3,0,0,0,left,right,left,2,1,0,0.091,59,1,200,398,0.398,1.848,1
578f9f52eeaf6d00018d4f20,30,male,1,1,45,Clear_not_profit_side,3,0,0,0,left,right,left,2,1,0,0.061,59,1,200,398,0.398,1.848,1
578f9f52eeaf6d00018d4f20,30,male,1,1,46,Ambigous_right,3,0,0,0,left,right,left,2,1,0,0.055,59,1,200,398,0.398,1.848,1
578f9f52eeaf6d00018d4f20,30,male,1,1,47,Ambigous_right,3,0,0,0,left,right,left,2,1,0,0.084,59,1,200,398,0.398,1.848,1
578f9f52eeaf6d00018d4f20,30,male,1,1,48,Clear_not_profit_side,3,0,0,0,left,right,left,2,1,0,0.01,59,1,200,398,0.398,1.848,1
578f9f52eeaf6d00018d4f20,30,male,1,1,50,Ambigous_right,3,0,0,0,left,right,left,2,1,0,0.085,59,1,200,398,0.398,1.848,1
578f9f52eeaf6d00018d4f20,30,male,1,1,52,Clear_not_profit_side,3,0,0,0,left,right,left,2,1,0,0.011,59,1,200,398,0.398,1.848,1
578f9f52eeaf6d00018d4f20,30,male,1,1,54,Ambigous_right,3,0,0,0,left,right,left,2,1,0,0.006,59,1,200,398,0.398,1.848,1
578f9f52eeaf6d00018d4f20,30,male,1,1,56,Clear_not_profit_side,3,0,0,0,left,right,left,2,1,0,0.07400000000000001,59,1,200,398,0.398,1.848,1
578f9f52eeaf6d00018d4f20,30,male,1,1,58,Clear_not_profit_side,3,0,0,0,left,right,left,2,1,0,0.046,59,1,200,398,0.398,1.848,1
578f9f52eeaf6d00018d4f20,30,male,1,1,61,Clear_not_profit_side,3,0,0,0,left,right,left,2,1,0,0.047,59,1,200,398,0.398,1.848,1
578f9f52eeaf6d00018d4f20,30,male,1,1,62,Clear_not_profit_side,3,0,0,0,left,right,left,2,1,0,0.078,59,1,200,398,0.398,1.848,1
578f9f52eeaf6d00018d4f20,30,male,1,1,64,Clear_not_profit_side,3,0,0,0,left,right,left,2,1,0,12.626,59,1,200,398,0.398,1.848,1
578f9f52eeaf6d00018d4f20,30,male,1,1,65,Clear_not_profit_side,3,0,0,0,left,right,left,2,1,0,0.06,59,1,200,398,0.398,1.848,1
578f9f52eeaf6d00018d4f20,30,male,1,1,66,Ambigous_right,3,0,0,0,left,right,left,2,1,0,0.14400000000000002,59,1,200,398,0.398,1.848,1
578f9f52eeaf6d00018d4f20,30,male,1,1,67,Clear_not_profit_side,3,0,0,0,left,right,left,2,1,0,0.107,59,1,200,398,0.398,1.848,1
578f9f52eeaf6d00018d4f20,30,male,1,1,68,Clear_not_profit_side,3,0,0,0,left,right,left,2,1,0,0.126,59,1,200,398,0.398,1.848,1
578f9f52eeaf6d00018d4f20,30,male,1,1,69,Clear_not_profit_side,3,0,0,0,left,right,left,2,1,0,0.08199999999999999,59,1,200,398,0.398,1.848,1
578f9f52eeaf6d00018d4f20,30,male,1,1,72,Clear_not_profit_side,3,0,0,0,left,right,left,2,1,0,0.094,59,1,200,398,0.398,1.848,1
578f9f52eeaf6d00018d4f20,30,male,1,1,74,Clear_not_profit_side,3,0,0,0,left,right,left,2,1,0,0.035,59,1,200,398,0.398,1.848,1
578f9f52eeaf6d00018d4f20,30,male,1,1,76,Clear_not_profit_side,3,0,0,0,left,right,left,2,1,0,0.034,59,1,200,398,0.398,1.848,1
578f9f52eeaf6d00018d4f20,30,male,1,1,77,Clear_not_profit_side,3,0,0,0,left,right,left,2,1,0,0.084,59,1,200,398,0.398,1.848,1
578f9f52eeaf6d00018d4f20,30,male,1,1,78,Ambigous_right,3,0,0,0,left,right,left,2,1,0,0.017,59,1,200,398,0.398,1.848,1
578f9f52eeaf6d00018d4f20,30,male,1,1,79,Ambigous_right,3,0,0,0,left,right,left,2,1,0,0.095,59,1,200,398,0.398,1.848,1
578f9f52eeaf6d00018d4f20,30,male,1,1,83,Clear_not_profit_side,3,0,0,0,left,right,left,2,1,0,0.08900000000000001,59,1,200,398,0.398,1.848,1
578f9f52eeaf6d00018d4f20,30,male,1,1,85,Clear_not_profit_side,3,0,0,0,left,right,left,2,1,0,0.04,59,1,200,398,0.398,1.848,1
578f9f52eeaf6d00018d4f20,30,male,1,1,87,Clear_not_profit_side,3,0,0,0,left,right,left,2,1,0,0.045,59,1,200,398,0.398,1.848,1
578f9f52eeaf6d00018d4f20,30,male,1,1,89,Ambigous_right,3,0,0,0,left,right,left,2,1,0,3.1,59,1,200,398,0.398,1.848,1
578f9f52eeaf6d00018d4f20,30,male,1,1,91,Ambigous_right,3,0,0,0,left,right,left,2,1,0,0.158,59,1,200,398,0.398,1.848,1
578f9f52eeaf6d00018d4f20,30,male,1,1,92,Clear_not_profit_side,3,0,0,0,left,right,left,2,1,0,0.104,59,1,200,398,0.398,1.848,1
578f9f52eeaf6d00018d4f20,30,male,1,1,94,Clear_not_profit_side,3,0,0,0,left,right,left,2,1,0,0.02,59,1,200,398,0.398,1.848,1
578f9f52eeaf6d00018d4f20,30,male,1,1,95,Ambigous_right,3,0,0,0,left,right,left,2,1,0,0.051,59,1,200,398,0.398,1.848,1
578f9f52eeaf6d00018d4f20,30,male,1,1,99,Ambigous_right,3,0,0,0,left,right,left,2,1,0,0.068,59,1,200,398,0.398,1.848,1
578f9f52eeaf6d00018d4f20,30,male,1,2,1,Clear_not_profit_side,3,0,0,0,left,right,left,2,1,0,0.025,59,1,198,398,0.398,1.848,1
578f9f52eeaf6d00018d4f20,30,male,1,2,2,Ambigous_right,3,0,0,0,left,right,left,2,1,0,0.117,59,1,198,398,0.398,1.848,1
578f9f52eeaf6d00018d4f20,30,male,1,2,3,Ambigous_right,3,0,0,0,left,right,left,2,1,0,0.037000000000000005,59,1,198,398,0.398,1.848,1
578f9f52eeaf6d00018d4f20,30,male,1,2,6,Clear_not_profit_side,3,0,0,0,left,right,left,2,1,0,0.043,59,1,198,398,0.398,1.848,1
578f9f52eeaf6d00018d4f20,30,male,1,2,7,Clear_not_profit_side,3,0,0,0,left,right,left,2,1,0,0.07400000000000001,59,1,198,398,0.398,1.848,1
578f9f52eeaf6d00018d4f20,30,male,1,2,8,Ambigous_right,3,0,0,0,left,right,left,2,1,0,0.06,59,1,198,398,0.398,1.848,1
578f9f52eeaf6d00018d4f20,30,male,1,2,9,Clear_not_profit_side,3,0,0,0,left,right,left,2,1,0,0.036000000000000004,59,1,198,398,0.398,1.848,1
578f9f52eeaf6d00018d4f20,30,male,1,2,11,Ambigous_right,3,0,0,0,left,right,left,2,1,0,0.038,59,1,198,398,0.398,1.848,1
578f9f52eeaf6d00018d4f20,30,male,1,2,12,Clear_not_profit_side,3,0,0,0,left,right,left,2,1,0,0.096,59,1,198,398,0.398,1.848,1
578f9f52eeaf6d00018d4f20,30,male,1,2,13,Ambigous_right,3,0,0,0,left,right,left,2,1,0,0.085,59,1,198,398,0.398,1.848,1
578f9f52eeaf6d00018d4f20,30,male,1,2,16,Clear_not_profit_side,3,0,0,0,left,right,left,2,1,0,0.02,59,1,198,398,0.398,1.848,1
578f9f52eeaf6d00018d4f20,30,male,1,2,17,Clear_not_profit_side,3,0,0,0,left,right,left,2,1,0,0.126,59,1,198,398,0.398,1.848,1
578f9f52eeaf6d00018d4f20,30,male,1,2,18,Clear_not_profit_side,3,0,0,0,left,right,left,2,1,0,0.032,59,1,198,398,0.398,1.848,1
578f9f52eeaf6d00018d4f20,30,male,1,2,20,Ambigous_right,3,0,0,0,left,right,left,2,1,0,0.064,59,1,198,398,0.398,1.848,1
578f9f52eeaf6d00018d4f20,30,male,1,2,21,Ambigous_right,3,0,0,0,left,right,left,2,1,0,0.052000000000000005,59,1,198,398,0.398,1.848,1
578f9f52eeaf6d00018d4f20,30,male,1,2,22,Clear_not_profit_side,3,0,0,0,left,right,left,2,1,0,0.052000000000000005,59,1,198,398,0.398,1.848,1
578f9f52eeaf6d00018d4f20,30,male,1,2,23,Ambigous_right,3,0,0,0,left,right,left,2,1,0,0.031,59,1,198,398,0.398,1.848,1
578f9f52eeaf6d00018d4f20,30,male,1,2,24,Ambigous_right,3,0,0,0,left,right,left,2,1,0,0.028,59,1,198,398,0.398,1.848,1
578f9f52eeaf6d00018d4f20,30,male,1,2,28,Clear_not_profit_side,3,0,0,0,left,right,left,2,1,0,0.042,59,1,198,398,0.398,1.848,1
578f9f52eeaf6d00018d4f20,30,male,1,2,29,Clear_not_profit_side,3,0,0,0,left,right,left,2,1,0,0.059,59,1,198,398,0.398,1.848,1
578f9f52eeaf6d00018d4f20,30,male,1,2,30,Ambigous_right,3,0,0,0,left,right,left,2,1,0,0.026,59,1,198,398,0.398,1.848,1
578f9f52eeaf6d00018d4f20,30,male,1,2,31,Clear_not_profit_side,3,0,0,0,left,right,left,2,1,0,0.091,59,1,198,398,0.398,1.848,1
578f9f52eeaf6d00018d4f20,30,male,1,2,34,Clear_not_profit_side,3,0,0,0,left,right,left,2,1,0,0.034,59,1,198,398,0.398,1.848,1
578f9f52eeaf6d00018d4f20,30,male,1,2,35,Clear_not_profit_side,3,0,0,0,left,right,left,2,1,0,0.006,59,1,198,398,0.398,1.848,1
578f9f52eeaf6d00018d4f20,30,male,1,2,40,Clear_not_profit_side,3,0,0,0,left,right,left,2,1,0,0.026,59,1,198,398,0.398,1.848,1
578f9f52eeaf6d00018d4f20,30,male,1,2,43,Clear_not_profit_side,3,0,0,0,left,right,left,2,1,0,0.039,59,1,198,398,0.398,1.848,1
578f9f52eeaf6d00018d4f20,30,male,1,2,44,Ambigous_right,3,0,0,0,left,right,left,2,1,0,0.04,59,1,198,398,0.398,1.848,1
578f9f52eeaf6d00018d4f20,30,male,1,2,45,Clear_not_profit_side,3,0,0,0,left,right,left,2,1,0,0.045,59,1,198,398,0.398,1.848,1
578f9f52eeaf6d00018d4f20,30,male,1,2,48,Clear_not_profit_side,3,0,0,0,left,right,left,2,1,0,0.06,59,1,198,398,0.398,1.848,1
578f9f52eeaf6d00018d4f20,30,male,1,2,50,Ambigous_right,3,0,0,0,left,right,left,2,1,0,1.628,59,1,198,398,0.398,1.848,1
578f9f52eeaf6d00018d4f20,30,male,1,2,52,Clear_not_profit_side,3,0,0,0,left,right,left,2,1,0,0.044,59,1,198,398,0.398,1.848,1
578f9f52eeaf6d00018d4f20,30,male,1,2,54,Clear_not_profit_side,3,0,0,0,left,right,left,2,1,0,0.023,59,1,198,398,0.398,1.848,1
578f9f52eeaf6d00018d4f20,30,male,1,2,55,Ambigous_right,3,0,0,0,left,right,left,2,1,0,0.04,59,1,198,398,0.398,1.848,1
578f9f52eeaf6d00018d4f20,30,male,1,2,56,Ambigous_right,3,0,0,0,left,right,left,2,1,0,0.047,59,1,198,398,0.398,1.848,1
578f9f52eeaf6d00018d4f20,30,male,1,2,60,Clear_not_profit_side,3,0,0,0,left,right,left,2,1,0,0.064,59,1,198,398,0.398,1.848,1
578f9f52eeaf6d00018d4f20,30,male,1,2,61,Clear_not_profit_side,3,0,0,0,left,right,left,2,1,0,0.033,59,1,198,398,0.398,1.848,1
578f9f52eeaf6d00018d4f20,30,male,1,2,63,Ambigous_right,3,0,0,0,left,right,left,2,1,0,0.042,59,1,198,398,0.398,1.848,1
578f9f52eeaf6d00018d4f20,30,male,1,2,64,Ambigous_right,3,0,0,0,left,right,left,2,1,0,0.08900000000000001,59,1,198,398,0.398,1.848,1
578f9f52eeaf6d00018d4f20,30,male,1,2,65,Ambigous_right,3,0,0,0,left,right,left,2,1,0,0.027000000000000003,59,1,198,398,0.398,1.848,1
578f9f52eeaf6d00018d4f20,30,male,1,2,66,Ambigous_right,3,0,0,0,left,right,left,2,1,0,0.065,59,1,198,398,0.398,1.848,1
578f9f52eeaf6d00018d4f20,30,male,1,2,68,Clear_not_profit_side,3,0,0,0,left,right,left,2,1,0,0.06,59,1,198,398,0.398,1.848,1
578f9f52eeaf6d00018d4f20,30,male,1,2,72,Ambigous_right,3,0,0,0,left,right,left,2,1,0,0.013,59,1,198,398,0.398,1.848,1
578f9f52eeaf6d00018d4f20,30,male,1,2,73,Clear_not_profit_side,3,0,0,0,left,right,left,2,1,0,0.037000000000000005,59,1,198,398,0.398,1.848,1
578f9f52eeaf6d00018d4f20,30,male,1,2,74,Clear_not_profit_side,3,0,0,0,left,right,left,2,1,0,0.081,59,1,198,398,0.398,1.848,1
578f9f52eeaf6d00018d4f20,30,male,1,2,76,Ambigous_right,3,0,0,0,left,right,left,2,1,0,0.054000000000000006,59,1,198,398,0.398,1.848,1
578f9f52eeaf6d00018d4f20,30,male,1,2,77,Ambigous_right,3,0,0,0,left,right,left,2,1,0,0.042,59,1,198,398,0.398,1.848,1
578f9f52eeaf6d00018d4f20,30,male,1,2,78,Clear_not_profit_side,3,0,0,0,left,right,left,2,1,0,0.024,59,1,198,398,0.398,1.848,1
578f9f52eeaf6d00018d4f20,30,male,1,2,79,Clear_not_profit_side,3,0,0,0,left,right,left,2,1,0,0.03,59,1,198,398,0.398,1.848,1
578f9f52eeaf6d00018d4f20,30,male,1,2,80,Clear_not_profit_side,3,0,0,0,left,right,left,2,1,0,0.09,59,1,198,398,0.398,1.848,1
578f9f52eeaf6d00018d4f20,30,male,1,2,81,Clear_not_profit_side,3,0,0,0,left,right,left,2,1,0,0.052000000000000005,59,1,198,398,0.398,1.848,1
578f9f52eeaf6d00018d4f20,30,male,1,2,82,Clear_not_profit_side,3,0,0,0,left,right,left,2,1,0,0.032,59,1,198,398,0.398,1.848,1
578f9f52eeaf6d00018d4f20,30,male,1,2,88,Clear_not_profit_side,3,0,0,0,left,right,left,2,1,0,0.048,59,1,198,398,0.398,1.848,1
578f9f52eeaf6d00018d4f20,30,male,1,2,89,Clear_not_profit_side,3,0,0,0,left,right,left,2,1,0,0.066,59,1,198,398,0.398,1.848,1
578f9f52eeaf6d00018d4f20,30,male,1,2,91,Ambigous_right,3,0,0,0,left,right,left,2,1,0,0.084,59,1,198,398,0.398,1.848,1
578f9f52eeaf6d00018d4f20,30,male,1,2,92,Ambigous_right,3,0,0,0,left,right,left,2,1,0,0.006999999999999999,59,1,198,398,0.398,1.848,1
578f9f52eeaf6d00018d4f20,30,male,1,2,93,Ambigous_right,3,0,0,0,left,right,left,2,1,0,0.098,59,1,198,398,0.398,1.848,1
578f9f52eeaf6d00018d4f20,30,male,1,2,97,Clear_not_profit_side,3,0,0,0,left,right,left,2,1,0,0.071,59,1,198,398,0.398,1.848,1
578f9f52eeaf6d00018d4f20,30,male,1,2,98,Ambigous_right,3,0,0,0,left,right,left,2,1,0,0.063,59,1,198,398,0.398,1.848,1
578f9f52eeaf6d00018d4f20,30,male,1,2,100,Clear_not_profit_side,3,0,0,0,left,right,left,2,1,0,0.026,59,1,198,398,0.398,1.848,1
595bf7acc76e6700014d33fc,52,female,1,1,1,Clear_not_profit_side,2,10,0,0,left,right,right,1,20,1,0.171,9,1,642,1170,1.17,2.62,0
595bf7acc76e6700014d33fc,52,female,1,1,7,Ambigous_right,2,10,0,0,left,right,right,1,20,1,0.071,9,1,642,1170,1.17,2.62,0
595bf7acc76e6700014d33fc,52,female,1,1,8,Ambigous_right,2,10,1,180,left,right,right,1,-160,1,0.053,9,1,642,1170,1.17,2.62,0
595bf7acc76e6700014d33fc,52,female,1,1,9,Clear_not_profit_side,2,10,0,0,left,right,right,1,20,1,0.056,9,1,642,1170,1.17,2.62,0
595bf7acc76e6700014d33fc,52,female,1,1,11,Clear_not_profit_side,2,10,1,180,left,right,right,1,-160,1,0.046,9,1,642,1170,1.17,2.62,0
595bf7acc76e6700014d33fc,52,female,1,1,12,Clear_not_profit_side,2,10,0,0,left,right,right,1,20,1,0.073,9,1,642,1170,1.17,2.62,0
595bf7acc76e6700014d33fc,52,female,1,1,13,Ambigous_right,2,10,0,0,left,right,right,1,20,1,0.06,9,1,642,1170,1.17,2.62,0
595bf7acc76e6700014d33fc,52,female,1,1,17,Ambigous_right,2,10,0,0,left,right,right,1,20,1,0.053,9,1,642,1170,1.17,2.62,0
595bf7acc76e6700014d33fc,52,female,1,1,18,Ambigous_right,2,10,0,0,left,right,right,1,20,1,0.056,9,1,642,1170,1.17,2.62,0
595bf7acc76e6700014d33fc,52,female,1,1,20,Clear_not_profit_side,2,10,0,0,left,right,right,1,20,1,0.049,9,1,642,1170,1.17,2.62,0
595bf7acc76e6700014d33fc,52,female,1,1,22,Ambigous_right,2,10,0,0,left,right,left,20,1,0,0.053,9,1,642,1170,1.17,2.62,1
595bf7acc76e6700014d33fc,52,female,1,1,23,Clear_not_profit_side,2,10,0,0,left,right,right,1,20,1,0.056,9,1,642,1170,1.17,2.62,0
595bf7acc76e6700014d33fc,52,female,1,1,25,Clear_not_profit_side,2,10,0,0,left,right,right,1,20,1,0.05,9,1,642,1170,1.17,2.62,0
595bf7acc76e6700014d33fc,52,female,1,1,27,Clear_not_profit_side,2,10,0,0,left,right,right,1,20,1,0.044,9,1,642,1170,1.17,2.62,0
595bf7acc76e6700014d33fc,52,female,1,1,28,Ambigous_right,2,10,0,0,left,right,right,1,20,1,0.04,9,1,642,1170,1.17,2.62,0
595bf7acc76e6700014d33fc,52,female,1,1,33,Clear_not_profit_side,2,10,0,0,left,right,right,1,20,1,0.062,9,1,642,1170,1.17,2.62,0
595bf7acc76e6700014d33fc,52,female,1,1,34,Clear_not_profit_side,2,10,0,0,left,right,right,1,20,1,0.056,9,1,642,1170,1.17,2.62,0
595bf7acc76e6700014d33fc,52,female,1,1,37,Clear_not_profit_side,2,10,0,0,left,right,right,1,20,1,0.069,9,1,642,1170,1.17,2.62,0
595bf7acc76e6700014d33fc,52,female,1,1,38,Clear_not_profit_side,2,10,0,0,left,right,right,1,20,1,0.047,9,1,642,1170,1.17,2.62,0
595bf7acc76e6700014d33fc,52,female,1,1,39,Clear_not_profit_side,2,10,1,180,left,right,right,1,-160,1,0.042,9,1,642,1170,1.17,2.62,0
595bf7acc76e6700014d33fc,52,female,1,1,40,Ambigous_right,2,10,0,0,left,right,right,1,20,1,0.043,9,1,642,1170,1.17,2.62,0
595bf7acc76e6700014d33fc,52,female,1,1,43,Ambigous_right,2,10,0,0,left,right,right,1,20,1,0.053,9,1,642,1170,1.17,2.62,0
595bf7acc76e6700014d33fc,52,female,1,1,44,Clear_not_profit_side,2,10,0,0,left,right,right,1,20,1,0.036000000000000004,9,1,642,1170,1.17,2.62,0
595bf7acc76e6700014d33fc,52,female,1,1,45,Ambigous_right,2,10,0,0,left,right,right,1,20,1,0.041,9,1,642,1170,1.17,2.62,0
595bf7acc76e6700014d33fc,52,female,1,1,48,Clear_not_profit_side,2,10,0,0,left,right,right,1,20,1,0.055,9,1,642,1170,1.17,2.62,0
595bf7acc76e6700014d33fc,52,female,1,1,51,Clear_not_profit_side,2,10,1,180,left,right,right,1,-160,1,0.045,9,1,642,1170,1.17,2.62,0
595bf7acc76e6700014d33fc,52,female,1,1,52,Clear_not_profit_side,2,10,0,0,left,right,right,1,20,1,0.049,9,1,642,1170,1.17,2.62,0
595bf7acc76e6700014d33fc,52,female,1,1,54,Ambigous_right,2,10,1,180,left,right,left,-160,-179,0,0.044,9,1,642,1170,1.17,2.62,1
595bf7acc76e6700014d33fc,52,female,1,1,55,Clear_not_profit_side,2,10,0,0,left,right,right,1,20,1,0.055,9,1,642,1170,1.17,2.62,0
595bf7acc76e6700014d33fc,52,female,1,1,57,Clear_not_profit_side,2,10,1,180,left,right,right,1,-160,1,0.049,9,1,642,1170,1.17,2.62,0
595bf7acc76e6700014d33fc,52,female,1,1,59,Clear_not_profit_side,2,10,0,0,left,right,right,1,20,1,0.034,9,1,642,1170,1.17,2.62,0
595bf7acc76e6700014d33fc,52,female,1,1,60,Ambigous_right,2,10,0,0,left,right,right,1,20,1,0.049,9,1,642,1170,1.17,2.62,0
595bf7acc76e6700014d33fc,52,female,1,1,61,Clear_not_profit_side,2,10,0,0,left,right,right,1,20,1,0.054000000000000006,9,1,642,1170,1.17,2.62,0
595bf7acc76e6700014d33fc,52,female,1,1,65,Ambigous_right,2,10,0,0,left,right,right,1,20,1,0.054000000000000006,9,1,642,1170,1.17,2.62,0
595bf7acc76e6700014d33fc,52,female,1,1,66,Ambigous_right,2,10,0,0,left,right,right,1,20,1,0.038,9,1,642,1170,1.17,2.62,0
595bf7acc76e6700014d33fc,52,female,1,1,67,Ambigous_right,2,10,0,0,left,right,left,20,1,0,0.052000000000000005,9,1,642,1170,1.17,2.62,1
595bf7acc76e6700014d33fc,52,female,1,1,68,Clear_not_profit_side,2,10,1,180,left,right,right,1,-160,1,0.034,9,1,642,1170,1.17,2.62,0
595bf7acc76e6700014d33fc,52,female,1,1,69,Ambigous_right,2,10,0,0,left,right,right,1,20,1,0.046,9,1,642,1170,1.17,2.62,0
595bf7acc76e6700014d33fc,52,female,1,1,73,Ambigous_right,2,10,1,180,left,right,right,1,-160,1,0.043,9,1,642,1170,1.17,2.62,0
595bf7acc76e6700014d33fc,52,female,1,1,75,Clear_not_profit_side,2,10,0,0,left,right,right,1,20,1,0.038,9,1,642,1170,1.17,2.62,0
595bf7acc76e6700014d33fc,52,female,1,1,76,Clear_not_profit_side,2,10,0,0,left,right,right,1,20,1,0.053,9,1,642,1170,1.17,2.62,0
595bf7acc76e6700014d33fc,52,female,1,1,77,Clear_not_profit_side,2,10,0,0,left,right,right,1,20,1,0.041,9,1,642,1170,1.17,2.62,0
595bf7acc76e6700014d33fc,52,female,1,1,79,Clear_not_profit_side,2,10,0,0,left,right,right,1,20,1,0.037000000000000005,9,1,642,1170,1.17,2.62,0
595bf7acc76e6700014d33fc,52,female,1,1,80,Ambigous_right,2,10,0,0,left,right,right,1,20,1,0.036000000000000004,9,1,642,1170,1.17,2.62,0
595bf7acc76e6700014d33fc,52,female,1,1,82,Ambigous_right,2,10,0,0,left,right,right,1,20,1,0.032,9,1,642,1170,1.17,2.62,0
595bf7acc76e6700014d33fc,52,female,1,1,83,Clear_not_profit_side,2,10,1,180,left,right,right,1,-160,1,0.05,9,1,642,1170,1.17,2.62,0
595bf7acc76e6700014d33fc,52,female,1,1,84,Clear_not_profit_side,2,10,0,0,left,right,right,1,20,1,0.035,9,1,642,1170,1.17,2.62,0
595bf7acc76e6700014d33fc,52,female,1,1,85,Ambigous_right,2,10,0,0,left,right,right,1,20,1,0.039,9,1,642,1170,1.17,2.62,0
595bf7acc76e6700014d33fc,52,female,1,1,86,Clear_not_profit_side,2,10,0,0,left,right,right,1,20,1,0.031,9,1,642,1170,1.17,2.62,0
595bf7acc76e6700014d33fc,52,female,1,1,87,Clear_not_profit_side,2,10,0,0,left,right,right,1,20,1,0.044,9,1,642,1170,1.17,2.62,0
595bf7acc76e6700014d33fc,52,female,1,1,88,Clear_not_profit_side,2,10,0,0,left,right,right,1,20,1,0.049,9,1,642,1170,1.17,2.62,0
595bf7acc76e6700014d33fc,52,female,1,1,89,Clear_not_profit_side,2,10,0,0,left,right,right,1,20,1,0.042,9,1,642,1170,1.17,2.62,0
595bf7acc76e6700014d33fc,52,female,1,1,90,Clear_not_profit_side,2,10,0,0,left,right,right,1,20,1,0.046,9,1,642,1170,1.17,2.62,0
595bf7acc76e6700014d33fc,52,female,1,1,91,Ambigous_right,2,10,0,0,left,right,right,1,20,1,0.031,9,1,642,1170,1.17,2.62,0
595bf7acc76e6700014d33fc,52,female,1,1,92,Ambigous_right,2,10,1,180,left,right,right,1,-160,1,0.044,9,1,642,1170,1.17,2.62,0
595bf7acc76e6700014d33fc,52,female,1,1,93,Ambigous_right,2,10,0,0,left,right,right,1,20,1,0.034,9,1,642,1170,1.17,2.62,0
595bf7acc76e6700014d33fc,52,female,1,1,95,Clear_not_profit_side,2,10,0,0,left,right,right,1,20,1,0.047,9,1,642,1170,1.17,2.62,0
595bf7acc76e6700014d33fc,52,female,1,1,97,Ambigous_right,2,10,0,0,left,right,right,1,20,1,0.031,9,1,642,1170,1.17,2.62,0
595bf7acc76e6700014d33fc,52,female,1,1,99,Ambigous_right,2,10,0,0,left,right,right,1,20,1,0.028,9,1,642,1170,1.17,2.62,0
595bf7acc76e6700014d33fc,52,female,1,2,1,Ambigous_right,2,10,0,0,left,right,right,1,20,1,0.026,13,1,528,1170,1.17,2.62,0
595bf7acc76e6700014d33fc,52,female,1,2,2,Clear_not_profit_side,2,10,0,0,left,right,right,1,20,1,0.041,13,1,528,1170,1.17,2.62,0
595bf7acc76e6700014d33fc,52,female,1,2,3,Ambigous_right,2,10,0,0,left,right,right,1,20,1,0.044,13,1,528,1170,1.17,2.62,0
595bf7acc76e6700014d33fc,52,female,1,2,5,Clear_not_profit_side,2,10,0,0,left,right,right,1,20,1,0.039,13,1,528,1170,1.17,2.62,0
595bf7acc76e6700014d33fc,52,female,1,2,7,Clear_not_profit_side,2,10,1,180,left,right,right,1,-160,1,0.04,13,1,528,1170,1.17,2.62,0
595bf7acc76e6700014d33fc,52,female,1,2,8,Clear_not_profit_side,2,10,1,180,left,right,right,1,-160,1,0.036000000000000004,13,1,528,1170,1.17,2.62,0
595bf7acc76e6700014d33fc,52,female,1,2,13,Clear_not_profit_side,2,10,0,0,left,right,right,1,20,1,0.038,13,1,528,1170,1.17,2.62,0
595bf7acc76e6700014d33fc,52,female,1,2,14,Clear_not_profit_side,2,10,0,0,left,right,right,1,20,1,0.079,13,1,528,1170,1.17,2.62,0
595bf7acc76e6700014d33fc,52,female,1,2,16,Ambigous_right,2,10,0,0,left,right,right,1,20,1,0.037000000000000005,13,1,528,1170,1.17,2.62,0
595bf7acc76e6700014d33fc,52,female,1,2,17,Clear_not_profit_side,2,10,0,0,left,right,right,1,20,1,0.03,13,1,528,1170,1.17,2.62,0
595bf7acc76e6700014d33fc,52,female,1,2,18,Clear_not_profit_side,2,10,0,0,left,right,right,1,20,1,0.025,13,1,528,1170,1.17,2.62,0
595bf7acc76e6700014d33fc,52,female,1,2,20,Clear_not_profit_side,2,10,1,180,left,right,right,1,-160,1,0.035,13,1,528,1170,1.17,2.62,0
595bf7acc76e6700014d33fc,52,female,1,2,21,Clear_not_profit_side,2,10,1,180,left,right,right,1,-160,1,0.023,13,1,528,1170,1.17,2.62,0
595bf7acc76e6700014d33fc,52,female,1,2,24,Clear_not_profit_side,2,10,0,0,left,right,right,1,20,1,0.025,13,1,528,1170,1.17,2.62,0
595bf7acc76e6700014d33fc,52,female,1,2,26,Ambigous_right,2,10,0,0,left,right,right,1,20,1,0.039,13,1,528,1170,1.17,2.62,0
595bf7acc76e6700014d33fc,52,female,1,2,27,Clear_not_profit_side,2,10,0,0,left,right,right,1,20,1,0.024,13,1,528,1170,1.17,2.62,0
595bf7acc76e6700014d33fc,52,female,1,2,28,Clear_not_profit_side,2,10,0,0,left,right,right,1,20,1,0.045,13,1,528,1170,1.17,2.62,0
595bf7acc76e6700014d33fc,52,female,1,2,29,Ambigous_right,2,10,0,0,left,right,right,1,20,1,0.026,13,1,528,1170,1.17,2.62,0
595bf7acc76e6700014d33fc,52,female,1,2,31,Clear_not_profit_side,2,10,0,0,left,right,right,1,20,1,0.028,13,1,528,1170,1.17,2.62,0
595bf7acc76e6700014d33fc,52,female,1,2,33,Ambigous_right,2,10,0,0,left,right,right,1,20,1,0.029,13,1,528,1170,1.17,2.62,0
595bf7acc76e6700014d33fc,52,female,1,2,34,Clear_not_profit_side,2,10,0,0,left,right,right,1,20,1,0.026,13,1,528,1170,1.17,2.62,0
595bf7acc76e6700014d33fc,52,female,1,2,36,Clear_not_profit_side,2,10,1,180,left,right,right,1,-160,1,0.03,13,1,528,1170,1.17,2.62,0
595bf7acc76e6700014d33fc,52,female,1,2,37,Ambigous_right,2,10,0,0,left,right,right,1,20,1,0.031,13,1,528,1170,1.17,2.62,0
595bf7acc76e6700014d33fc,52,female,1,2,39,Ambigous_right,2,10,0,0,left,right,right,1,20,1,0.067,13,1,528,1170,1.17,2.62,0
595bf7acc76e6700014d33fc,52,female,1,2,40,Ambigous_right,2,10,0,0,left,right,right,1,20,1,0.047,13,1,528,1170,1.17,2.62,0
595bf7acc76e6700014d33fc,52,female,1,2,41,Ambigous_right,2,10,0,0,left,right,right,1,20,1,0.029,13,1,528,1170,1.17,2.62,0
595bf7acc76e6700014d33fc,52,female,1,2,42,Clear_not_profit_side,2,10,0,0,left,right,right,1,20,1,0.024,13,1,528,1170,1.17,2.62,0
595bf7acc76e6700014d33fc,52,female,1,2,46,Clear_not_profit_side,2,10,0,0,left,right,right,1,20,1,0.037000000000000005,13,1,528,1170,1.17,2.62,0
595bf7acc76e6700014d33fc,52,female,1,2,47,Ambigous_right,2,10,1,180,left,right,right,1,-160,1,0.028,13,1,528,1170,1.17,2.62,0
595bf7acc76e6700014d33fc,52,female,1,2,51,Ambigous_right,2,10,0,0,left,right,right,1,20,1,0.039,13,1,528,1170,1.17,2.62,0
595bf7acc76e6700014d33fc,52,female,1,2,52,Clear_not_profit_side,2,10,1,180,left,right,right,1,-160,1,0.027000000000000003,13,1,528,1170,1.17,2.62,0
595bf7acc76e6700014d33fc,52,female,1,2,53,Ambigous_right,2,10,0,0,left,right,right,1,20,1,0.033,13,1,528,1170,1.17,2.62,0
595bf7acc76e6700014d33fc,52,female,1,2,54,Clear_not_profit_side,2,10,0,0,left,right,right,1,20,1,0.032,13,1,528,1170,1.17,2.62,0
595bf7acc76e6700014d33fc,52,female,1,2,59,Ambigous_right,2,10,0,0,left,right,right,1,20,1,0.047,13,1,528,1170,1.17,2.62,0
595bf7acc76e6700014d33fc,52,female,1,2,60,Ambigous_right,2,10,0,0,left,right,right,1,20,1,0.065,13,1,528,1170,1.17,2.62,0
595bf7acc76e6700014d33fc,52,female,1,2,62,Clear_not_profit_side,2,10,0,0,left,right,right,1,20,1,0.036000000000000004,13,1,528,1170,1.17,2.62,0
595bf7acc76e6700014d33fc,52,female,1,2,63,Clear_not_profit_side,2,10,0,0,left,right,right,1,20,1,0.038,13,1,528,1170,1.17,2.62,0
595bf7acc76e6700014d33fc,52,female,1,2,65,Ambigous_right,2,10,0,0,left,right,right,1,20,1,0.034,13,1,528,1170,1.17,2.62,0
595bf7acc76e6700014d33fc,52,female,1,2,66,Ambigous_right,2,10,0,0,left,right,right,1,20,1,0.037000000000000005,13,1,528,1170,1.17,2.62,0
595bf7acc76e6700014d33fc,52,female,1,2,72,Clear_not_profit_side,2,10,0,0,left,right,right,1,20,1,0.034,13,1,528,1170,1.17,2.62,0
595bf7acc76e6700014d33fc,52,female,1,2,73,Clear_not_profit_side,2,10,0,0,left,right,right,1,20,1,0.028,13,1,528,1170,1.17,2.62,0
595bf7acc76e6700014d33fc,52,female,1,2,76,Ambigous_right,2,10,0,0,left,right,right,1,20,1,0.047,13,1,528,1170,1.17,2.62,0
595bf7acc76e6700014d33fc,52,female,1,2,77,Clear_not_profit_side,2,10,0,0,left,right,right,1,20,1,0.035,13,1,528,1170,1.17,2.62,0
595bf7acc76e6700014d33fc,52,female,1,2,78,Ambigous_right,2,10,1,180,left,right,right,1,-160,1,0.054000000000000006,13,1,528,1170,1.17,2.62,0
595bf7acc76e6700014d33fc,52,female,1,2,79,Ambigous_right,2,10,0,0,left,right,left,20,1,0,0.058,13,1,528,1170,1.17,2.62,1
595bf7acc76e6700014d33fc,52,female,1,2,80,Clear_not_profit_side,2,10,0,0,left,right,right,1,20,1,0.034,13,1,528,1170,1.17,2.62,0
595bf7acc76e6700014d33fc,52,female,1,2,81,Clear_not_profit_side,2,10,0,0,left,right,right,1,20,1,0.028,13,1,528,1170,1.17,2.62,0
595bf7acc76e6700014d33fc,52,female,1,2,83,Clear_not_profit_side,2,10,0,0,left,right,right,1,20,1,0.031,13,1,528,1170,1.17,2.62,0
595bf7acc76e6700014d33fc,52,female,1,2,86,Ambigous_right,2,10,0,0,left,right,right,1,20,1,0.026,13,1,528,1170,1.17,2.62,0
595bf7acc76e6700014d33fc,52,female,1,2,88,Clear_not_profit_side,2,10,0,0,left,right,right,1,20,1,0.029,13,1,528,1170,1.17,2.62,0
595bf7acc76e6700014d33fc,52,female,1,2,91,Ambigous_right,2,10,0,0,left,right,right,1,20,1,0.03,13,1,528,1170,1.17,2.62,0
595bf7acc76e6700014d33fc,52,female,1,2,92,Ambigous_right,2,10,0,0,left,right,right,1,20,1,0.04,13,1,528,1170,1.17,2.62,0
595bf7acc76e6700014d33fc,52,female,1,2,93,Ambigous_right,2,10,0,0,left,right,right,1,20,1,0.04,13,1,528,1170,1.17,2.62,0
595bf7acc76e6700014d33fc,52,female,1,2,94,Clear_not_profit_side,2,10,0,0,left,right,right,1,20,1,0.041,13,1,528,1170,1.17,2.62,0
595bf7acc76e6700014d33fc,52,female,1,2,95,Clear_not_profit_side,2,10,0,0,left,right,right,1,20,1,0.069,13,1,528,1170,1.17,2.62,0
595bf7acc76e6700014d33fc,52,female,1,2,96,Clear_not_profit_side,2,10,0,0,left,right,right,1,20,1,0.019,13,1,528,1170,1.17,2.62,0
595bf7acc76e6700014d33fc,52,female,1,2,97,Clear_not_profit_side,2,10,0,0,left,right,right,1,20,1,0.02,13,1,528,1170,1.17,2.62,0
595bf7acc76e6700014d33fc,52,female,1,2,99,Clear_not_profit_side,2,10,0,0,left,right,right,1,20,1,0.037000000000000005,13,1,528,1170,1.17,2.62,0
595bf7acc76e6700014d33fc,52,female,1,2,100,Ambigous_right,2,10,1,180,left,right,left,-160,-179,0,0.08,13,1,528,1170,1.17,2.62,1
59e7276d5de9b000017ed1c1,38,male,0,1,1,Ambigous_left,3,0,0,0,right,left,left,1,2,1,0.99,13,1,152,325,0.325,1.775,0
59e7276d5de9b000017ed1c1,38,male,0,1,2,Ambigous_left,3,0,0,0,right,left,left,1,2,1,0.297,13,1,152,325,0.325,1.775,0
59e7276d5de9b000017ed1c1,38,male,0,1,3,Ambigous_left,3,0,0,0,right,left,right,2,1,0,0.765,13,1,152,325,0.325,1.775,1
59e7276d5de9b000017ed1c1,38,male,0,1,4,Ambigous_left,3,0,0,0,right,left,left,1,2,1,0.35700000000000004,13,1,152,325,0.325,1.775,0
59e7276d5de9b000017ed1c1,38,male,0,1,5,Ambigous_left,3,0,0,0,right,left,left,1,2,1,0.249,13,1,152,325,0.325,1.775,0
59e7276d5de9b000017ed1c1,38,male,0,1,8,Clear_not_profit_side,3,0,0,0,right,left,left,1,2,1,0.316,13,1,152,325,0.325,1.775,0
59e7276d5de9b000017ed1c1,38,male,0,1,9,Ambigous_left,3,0,0,0,right,left,left,1,2,1,0.723,13,1,152,325,0.325,1.775,0
59e7276d5de9b000017ed1c1,38,male,0,1,10,Ambigous_left,3,0,0,0,right,left,right,2,1,0,1.992,13,1,152,325,0.325,1.775,1
59e7276d5de9b000017ed1c1,38,male,0,1,12,Ambigous_left,3,0,0,0,right,left,right,2,1,0,0.4970000000000001,13,1,152,325,0.325,1.775,1
59e7276d5de9b000017ed1c1,38,male,0,1,13,Clear_not_profit_side,3,0,0,0,right,left,left,1,2,1,0.376,13,1,152,325,0.325,1.775,0
59e7276d5de9b000017ed1c1,38,male,0,1,15,Clear_not_profit_side,3,0,0,0,right,left,left,1,2,1,0.34600000000000003,13,1,152,325,0.325,1.775,0
59e7276d5de9b000017ed1c1,38,male,0,1,17,Clear_not_profit_side,3,0,0,0,right,left,left,1,2,1,0.384,13,1,152,325,0.325,1.775,0
59e7276d5de9b000017ed1c1,38,male,0,1,19,Clear_not_profit_side,3,0,0,0,right,left,left,1,2,1,0.6459999999999999,13,1,152,325,0.325,1.775,0
59e7276d5de9b000017ed1c1,38,male,0,1,20,Ambigous_left,3,0,0,0,right,left,left,1,2,1,0.292,13,1,152,325,0.325,1.775,0
59e7276d5de9b000017ed1c1,38,male,0,1,21,Clear_not_profit_side,3,0,0,0,right,left,left,1,2,1,0.245,13,1,152,325,0.325,1.775,0
59e7276d5de9b000017ed1c1,38,male,0,1,23,Clear_not_profit_side,3,0,0,0,right,left,right,2,1,0,0.443,13,1,152,325,0.325,1.775,1
59e7276d5de9b000017ed1c1,38,male,0,1,28,Clear_not_profit_side,3,0,0,0,right,left,left,1,2,1,0.597,13,1,152,325,0.325,1.775,0
59e7276d5de9b000017ed1c1,38,male,0,1,30,Ambigous_left,3,0,0,0,right,left,left,1,2,1,0.313,13,1,152,325,0.325,1.775,0
59e7276d5de9b000017ed1c1,38,male,0,1,32,Clear_not_profit_side,3,0,0,0,right,left,right,2,1,0,0.282,13,1,152,325,0.325,1.775,1
59e7276d5de9b000017ed1c1,38,male,0,1,34,Ambigous_left,3,0,0,0,right,left,left,1,2,1,0.399,13,1,152,325,0.325,1.775,0
59e7276d5de9b000017ed1c1,38,male,0,1,36,Clear_not_profit_side,3,0,0,0,right,left,left,1,2,1,0.4270000000000001,13,1,152,325,0.325,1.775,0
59e7276d5de9b000017ed1c1,38,male,0,1,37,Ambigous_left,3,0,0,0,right,left,left,1,2,1,0.221,13,1,152,325,0.325,1.775,0
59e7276d5de9b000017ed1c1,38,male,0,1,42,Clear_not_profit_side,3,0,0,0,right,left,left,1,2,1,0.32299999999999995,13,1,152,325,0.325,1.775,0
59e7276d5de9b000017ed1c1,38,male,0,1,43,Ambigous_left,3,0,0,0,right,left,left,1,2,1,0.318,13,1,152,325,0.325,1.775,0
59e7276d5de9b000017ed1c1,38,male,0,1,45,Clear_not_profit_side,3,0,0,0,right,left,left,1,2,1,0.28800000000000003,13,1,152,325,0.325,1.775,0
59e7276d5de9b000017ed1c1,38,male,0,1,46,Clear_not_profit_side,3,0,0,0,right,left,left,1,2,1,0.246,13,1,152,325,0.325,1.775,0
59e7276d5de9b000017ed1c1,38,male,0,1,48,Ambigous_left,3,0,0,0,right,left,right,2,1,0,0.266,13,1,152,325,0.325,1.775,1
59e7276d5de9b000017ed1c1,38,male,0,1,49,Ambigous_left,3,0,0,0,right,left,left,1,2,1,0.384,13,1,152,325,0.325,1.775,0
59e7276d5de9b000017ed1c1,38,male,0,1,50,Clear_not_profit_side,3,0,0,0,right,left,left,1,2,1,0.231,13,1,152,325,0.325,1.775,0
59e7276d5de9b000017ed1c1,38,male,0,1,51,Ambigous_left,3,0,0,0,right,left,left,1,2,1,0.616,13,1,152,325,0.325,1.775,0
59e7276d5de9b000017ed1c1,38,male,0,1,52,Clear_not_profit_side,3,0,0,0,right,left,left,1,2,1,0.269,13,1,152,325,0.325,1.775,0
59e7276d5de9b000017ed1c1,38,male,0,1,53,Ambigous_left,3,0,0,0,right,left,left,1,2,1,0.259,13,1,152,325,0.325,1.775,0
59e7276d5de9b000017ed1c1,38,male,0,1,56,Ambigous_left,3,0,0,0,right,left,left,1,2,1,0.619,13,1,152,325,0.325,1.775,0
59e7276d5de9b000017ed1c1,38,male,0,1,57,Clear_not_profit_side,3,0,0,0,right,left,left,1,2,1,0.209,13,1,152,325,0.325,1.775,0
59e7276d5de9b000017ed1c1,38,male,0,1,59,Clear_not_profit_side,3,0,0,0,right,left,right,2,1,0,0.331,13,1,152,325,0.325,1.775,1
59e7276d5de9b000017ed1c1,38,male,0,1,60,Clear_not_profit_side,3,0,0,0,right,left,left,1,2,1,0.207,13,1,152,325,0.325,1.775,0
59e7276d5de9b000017ed1c1,38,male,0,1,61,Clear_not_profit_side,3,0,0,0,right,left,left,1,2,1,0.202,13,1,152,325,0.325,1.775,0
59e7276d5de9b000017ed1c1,38,male,0,1,63,Ambigous_left,3,0,0,0,right,left,left,1,2,1,0.231,13,1,152,325,0.325,1.775,0
59e7276d5de9b000017ed1c1,38,male,0,1,64,Ambigous_left,3,0,0,0,right,left,left,1,2,1,0.219,13,1,152,325,0.325,1.775,0
59e7276d5de9b000017ed1c1,38,male,0,1,65,Clear_not_profit_side,3,0,0,0,right,left,left,1,2,1,0.292,13,1,152,325,0.325,1.775,0
59e7276d5de9b000017ed1c1,38,male,0,1,67,Clear_not_profit_side,3,0,0,0,right,left,left,1,2,1,0.202,13,1,152,325,0.325,1.775,0
59e7276d5de9b000017ed1c1,38,male,0,1,68,Clear_not_profit_side,3,0,0,0,right,left,left,1,2,1,0.203,13,1,152,325,0.325,1.775,0
59e7276d5de9b000017ed1c1,38,male,0,1,69,Ambigous_left,3,0,0,0,right,left,left,1,2,1,0.237,13,1,152,325,0.325,1.775,0
59e7276d5de9b000017ed1c1,38,male,0,1,71,Clear_not_profit_side,3,0,0,0,right,left,right,2,1,0,0.236,13,1,152,325,0.325,1.775,1
59e7276d5de9b000017ed1c1,38,male,0,1,72,Ambigous_left,3,0,0,0,right,left,right,2,1,0,0.289,13,1,152,325,0.325,1.775,1
59e7276d5de9b000017ed1c1,38,male,0,1,76,Clear_not_profit_side,3,0,0,0,right,left,left,1,2,1,0.311,13,1,152,325,0.325,1.775,0
59e7276d5de9b000017ed1c1,38,male,0,1,78,Ambigous_left,3,0,0,0,right,left,left,1,2,1,0.399,13,1,152,325,0.325,1.775,0
59e7276d5de9b000017ed1c1,38,male,0,1,79,Clear_not_profit_side,3,0,0,0,right,left,left,1,2,1,0.6629999999999999,13,1,152,325,0.325,1.775,0
59e7276d5de9b000017ed1c1,38,male,0,1,80,Ambigous_left,3,0,0,0,right,left,left,1,2,1,0.217,13,1,152,325,0.325,1.775,0
59e7276d5de9b000017ed1c1,38,male,0,1,81,Clear_not_profit_side,3,0,0,0,right,left,left,1,2,1,0.306,13,1,152,325,0.325,1.775,0
59e7276d5de9b000017ed1c1,38,male,0,1,82,Clear_not_profit_side,3,0,0,0,right,left,left,1,2,1,0.255,13,1,152,325,0.325,1.775,0
59e7276d5de9b000017ed1c1,38,male,0,1,84,Clear_not_profit_side,3,0,0,0,right,left,right,2,1,0,0.396,13,1,152,325,0.325,1.775,1
59e7276d5de9b000017ed1c1,38,male,0,1,85,Clear_not_profit_side,3,0,0,0,right,left,left,1,2,1,0.234,13,1,152,325,0.325,1.775,0
59e7276d5de9b000017ed1c1,38,male,0,1,86,Clear_not_profit_side,3,0,0,0,right,left,left,1,2,1,0.19,13,1,152,325,0.325,1.775,0
59e7276d5de9b000017ed1c1,38,male,0,1,90,Clear_not_profit_side,3,0,0,0,right,left,right,2,1,0,0.259,13,1,152,325,0.325,1.775,1
59e7276d5de9b000017ed1c1,38,male,0,1,92,Clear_not_profit_side,3,0,0,0,right,left,right,2,1,0,0.335,13,1,152,325,0.325,1.775,1
59e7276d5de9b000017ed1c1,38,male,0,1,96,Clear_not_profit_side,3,0,0,0,right,left,left,1,2,1,0.246,13,1,152,325,0.325,1.775,0
59e7276d5de9b000017ed1c1,38,male,0,1,97,Clear_not_profit_side,3,0,0,0,right,left,left,1,2,1,0.214,13,1,152,325,0.325,1.775,0
59e7276d5de9b000017ed1c1,38,male,0,1,100,Ambigous_left,3,0,0,0,right,left,left,1,2,1,0.277,13,1,152,325,0.325,1.775,0
59e7276d5de9b000017ed1c1,38,male,0,2,1,Ambigous_left,3,0,0,0,right,left,right,2,1,0,0.233,34,1,173,325,0.325,1.775,1
59e7276d5de9b000017ed1c1,38,male,0,2,3,Clear_not_profit_side,3,0,0,0,right,left,left,1,2,1,0.224,34,1,173,325,0.325,1.775,0
59e7276d5de9b000017ed1c1,38,male,0,2,4,Ambigous_left,3,0,0,0,right,left,right,2,1,0,0.27,34,1,173,325,0.325,1.775,1
59e7276d5de9b000017ed1c1,38,male,0,2,8,Ambigous_left,3,0,0,0,right,left,left,1,2,1,0.322,34,1,173,325,0.325,1.775,0
59e7276d5de9b000017ed1c1,38,male,0,2,9,Clear_not_profit_side,3,0,0,0,right,left,left,1,2,1,0.224,34,1,173,325,0.325,1.775,0
59e7276d5de9b000017ed1c1,38,male,0,2,10,Ambigous_left,3,0,0,0,right,left,left,1,2,1,0.234,34,1,173,325,0.325,1.775,0
59e7276d5de9b000017ed1c1,38,male,0,2,12,Clear_not_profit_side,3,0,0,0,right,left,right,2,1,0,0.241,34,1,173,325,0.325,1.775,1
59e7276d5de9b000017ed1c1,38,male,0,2,13,Clear_not_profit_side,3,0,0,0,right,left,right,2,1,0,0.28300000000000003,34,1,173,325,0.325,1.775,1
59e7276d5de9b000017ed1c1,38,male,0,2,14,Clear_not_profit_side,3,0,0,0,right,left,right,2,1,0,0.265,34,1,173,325,0.325,1.775,1
59e7276d5de9b000017ed1c1,38,male,0,2,15,Clear_not_profit_side,3,0,0,0,right,left,left,1,2,1,0.282,34,1,173,325,0.325,1.775,0
59e7276d5de9b000017ed1c1,38,male,0,2,17,Clear_not_profit_side,3,0,0,0,right,left,right,2,1,0,0.25,34,1,173,325,0.325,1.775,1
59e7276d5de9b000017ed1c1,38,male,0,2,18,Ambigous_left,3,0,0,0,right,left,right,2,1,0,0.325,34,1,173,325,0.325,1.775,1
59e7276d5de9b000017ed1c1,38,male,0,2,21,Ambigous_left,3,0,0,0,right,left,right,2,1,0,0.253,34,1,173,325,0.325,1.775,1
59e7276d5de9b000017ed1c1,38,male,0,2,22,Clear_not_profit_side,3,0,0,0,right,left,left,1,2,1,0.261,34,1,173,325,0.325,1.775,0
59e7276d5de9b000017ed1c1,38,male,0,2,23,Ambigous_left,3,0,0,0,right,left,right,2,1,0,0.208,34,1,173,325,0.325,1.775,1
59e7276d5de9b000017ed1c1,38,male,0,2,26,Clear_not_profit_side,3,0,0,0,right,left,right,2,1,0,0.246,34,1,173,325,0.325,1.775,1
59e7276d5de9b000017ed1c1,38,male,0,2,27,Clear_not_profit_side,3,0,0,0,right,left,right,2,1,0,0.21,34,1,173,325,0.325,1.775,1
59e7276d5de9b000017ed1c1,38,male,0,2,28,Ambigous_left,3,0,0,0,right,left,right,2,1,0,0.242,34,1,173,325,0.325,1.775,1
59e7276d5de9b000017ed1c1,38,male,0,2,29,Ambigous_left,3,0,0,0,right,left,right,2,1,0,0.227,34,1,173,325,0.325,1.775,1
59e7276d5de9b000017ed1c1,38,male,0,2,30,Clear_not_profit_side,3,0,0,0,right,left,left,1,2,1,0.224,34,1,173,325,0.325,1.775,0
59e7276d5de9b000017ed1c1,38,male,0,2,33,Ambigous_left,3,0,0,0,right,left,right,2,1,0,0.209,34,1,173,325,0.325,1.775,1
59e7276d5de9b000017ed1c1,38,male,0,2,35,Ambigous_left,3,0,0,0,right,left,right,2,1,0,0.214,34,1,173,325,0.325,1.775,1
59e7276d5de9b000017ed1c1,38,male,0,2,37,Ambigous_left,3,0,0,0,right,left,right,2,1,0,0.228,34,1,173,325,0.325,1.775,1
59e7276d5de9b000017ed1c1,38,male,0,2,38,Clear_not_profit_side,3,0,0,0,right,left,left,1,2,1,0.28600000000000003,34,1,173,325,0.325,1.775,0
59e7276d5de9b000017ed1c1,38,male,0,2,39,Ambigous_left,3,0,0,0,right,left,left,1,2,1,0.191,34,1,173,325,0.325,1.775,0
59e7276d5de9b000017ed1c1,38,male,0,2,40,Clear_not_profit_side,3,0,0,0,right,left,left,1,2,1,0.206,34,1,173,325,0.325,1.775,0
59e7276d5de9b000017ed1c1,38,male,0,2,41,Ambigous_left,3,0,0,0,right,left,left,1,2,1,0.194,34,1,173,325,0.325,1.775,0
59e7276d5de9b000017ed1c1,38,male,0,2,44,Clear_not_profit_side,3,0,0,0,right,left,right,2,1,0,0.267,34,1,173,325,0.325,1.775,1
59e7276d5de9b000017ed1c1,38,male,0,2,46,Ambigous_left,3,0,0,0,right,left,right,2,1,0,0.223,34,1,173,325,0.325,1.775,1
59e7276d5de9b000017ed1c1,38,male,0,2,53,Clear_not_profit_side,3,0,0,0,right,left,left,1,2,1,0.183,34,1,173,325,0.325,1.775,0
59e7276d5de9b000017ed1c1,38,male,0,2,54,Clear_not_profit_side,3,0,0,0,right,left,left,1,2,1,0.209,34,1,173,325,0.325,1.775,0
59e7276d5de9b000017ed1c1,38,male,0,2,56,Clear_not_profit_side,3,0,0,0,right,left,right,2,1,0,0.192,34,1,173,325,0.325,1.775,1
59e7276d5de9b000017ed1c1,38,male,0,2,57,Clear_not_profit_side,3,0,0,0,right,left,right,2,1,0,0.232,34,1,173,325,0.325,1.775,1
59e7276d5de9b000017ed1c1,38,male,0,2,58,Clear_not_profit_side,3,0,0,0,right,left,left,1,2,1,0.213,34,1,173,325,0.325,1.775,0
59e7276d5de9b000017ed1c1,38,male,0,2,59,Clear_not_profit_side,3,0,0,0,right,left,left,1,2,1,10.890999999999998,34,1,173,325,0.325,1.775,0
59e7276d5de9b000017ed1c1,38,male,0,2,60,Ambigous_left,3,0,0,0,right,left,right,2,1,0,0.213,34,1,173,325,0.325,1.775,1
59e7276d5de9b000017ed1c1,38,male,0,2,61,Ambigous_left,3,0,0,0,right,left,right,2,1,0,0.188,34,1,173,325,0.325,1.775,1
59e7276d5de9b000017ed1c1,38,male,0,2,62,Clear_not_profit_side,3,0,0,0,right,left,left,1,2,1,0.28600000000000003,34,1,173,325,0.325,1.775,0
59e7276d5de9b000017ed1c1,38,male,0,2,64,Clear_not_profit_side,3,0,0,0,right,left,right,2,1,0,0.215,34,1,173,325,0.325,1.775,1
59e7276d5de9b000017ed1c1,38,male,0,2,65,Ambigous_left,3,0,0,0,right,left,right,2,1,0,0.237,34,1,173,325,0.325,1.775,1
59e7276d5de9b000017ed1c1,38,male,0,2,67,Ambigous_left,3,0,0,0,right,left,left,1,2,1,0.232,34,1,173,325,0.325,1.775,0
59e7276d5de9b000017ed1c1,38,male,0,2,71,Clear_not_profit_side,3,0,0,0,right,left,left,1,2,1,0.233,34,1,173,325,0.325,1.775,0
59e7276d5de9b000017ed1c1,38,male,0,2,72,Ambigous_left,3,0,0,0,right,left,left,1,2,1,0.199,34,1,173,325,0.325,1.775,0
59e7276d5de9b000017ed1c1,38,male,0,2,75,Ambigous_left,3,0,0,0,right,left,right,2,1,0,0.133,34,1,173,325,0.325,1.775,1
59e7276d5de9b000017ed1c1,38,male,0,2,78,Ambigous_left,3,0,0,0,right,left,left,1,2,1,0.28600000000000003,34,1,173,325,0.325,1.775,0
59e7276d5de9b000017ed1c1,38,male,0,2,79,Ambigous_left,3,0,0,0,right,left,left,1,2,1,0.245,34,1,173,325,0.325,1.775,0
59e7276d5de9b000017ed1c1,38,male,0,2,82,Clear_not_profit_side,3,0,0,0,right,left,right,2,1,0,0.254,34,1,173,325,0.325,1.775,1
59e7276d5de9b000017ed1c1,38,male,0,2,83,Clear_not_profit_side,3,0,0,0,right,left,right,2,1,0,0.227,34,1,173,325,0.325,1.775,1
59e7276d5de9b000017ed1c1,38,male,0,2,85,Clear_not_profit_side,3,0,0,0,right,left,right,2,1,0,0.248,34,1,173,325,0.325,1.775,1
59e7276d5de9b000017ed1c1,38,male,0,2,86,Clear_not_profit_side,3,0,0,0,right,left,left,1,2,1,0.29,34,1,173,325,0.325,1.775,0
59e7276d5de9b000017ed1c1,38,male,0,2,87,Ambigous_left,3,0,0,0,right,left,left,1,2,1,0.253,34,1,173,325,0.325,1.775,0
59e7276d5de9b000017ed1c1,38,male,0,2,88,Clear_not_profit_side,3,0,0,0,right,left,left,1,2,1,0.22,34,1,173,325,0.325,1.775,0
59e7276d5de9b000017ed1c1,38,male,0,2,91,Clear_not_profit_side,3,0,0,0,right,left,right,2,1,0,0.243,34,1,173,325,0.325,1.775,1
59e7276d5de9b000017ed1c1,38,male,0,2,92,Clear_not_profit_side,3,0,0,0,right,left,right,2,1,0,0.5920000000000001,34,1,173,325,0.325,1.775,1
59e7276d5de9b000017ed1c1,38,male,0,2,93,Ambigous_left,3,0,0,0,right,left,right,2,1,0,0.214,34,1,173,325,0.325,1.775,1
59e7276d5de9b000017ed1c1,38,male,0,2,96,Clear_not_profit_side,3,0,0,0,right,left,right,2,1,0,0.214,34,1,173,325,0.325,1.775,1
59e7276d5de9b000017ed1c1,38,male,0,2,97,Clear_not_profit_side,3,0,0,0,right,left,left,1,2,1,0.444,34,1,173,325,0.325,1.775,0
59e7276d5de9b000017ed1c1,38,male,0,2,98,Clear_not_profit_side,3,0,0,0,right,left,left,1,2,1,0.212,34,1,173,325,0.325,1.775,0
59e7276d5de9b000017ed1c1,38,male,0,2,100,Clear_not_profit_side,3,0,0,0,right,left,right,2,1,0,0.245,34,1,173,325,0.325,1.775,1
5b01842bc573030001c345e0,44,male,1,1,1,Clear_not_profit_side,1,90,1,20,right,left,left,1,0,1,0.196,19,1,784,1597,1.597,3.0469999999999997,0
5b01842bc573030001c345e0,44,male,1,1,2,Clear_not_profit_side,1,90,1,20,right,left,left,1,0,1,0.187,19,1,784,1597,1.597,3.0469999999999997,0
5b01842bc573030001c345e0,44,male,1,1,4,Clear_not_profit_side,1,90,1,20,right,left,left,1,0,1,0.274,19,1,784,1597,1.597,3.0469999999999997,0
5b01842bc573030001c345e0,44,male,1,1,5,Ambigous_left,1,90,1,20,right,left,right,0,-19,0,0.168,19,1,784,1597,1.597,3.0469999999999997,1
5b01842bc573030001c345e0,44,male,1,1,10,Ambigous_left,1,90,1,20,right,left,right,0,-19,0,0.135,19,1,784,1597,1.597,3.0469999999999997,1
5b01842bc573030001c345e0,44,male,1,1,11,Ambigous_left,1,90,1,20,right,left,left,1,0,1,0.195,19,1,784,1597,1.597,3.0469999999999997,0
5b01842bc573030001c345e0,44,male,1,1,13,Ambigous_left,1,90,1,20,right,left,left,1,0,1,0.235,19,1,784,1597,1.597,3.0469999999999997,0
5b01842bc573030001c345e0,44,male,1,1,15,Clear_not_profit_side,1,90,1,20,right,left,right,0,-19,0,0.233,19,1,784,1597,1.597,3.0469999999999997,1
5b01842bc573030001c345e0,44,male,1,1,16,Clear_not_profit_side,1,90,1,20,right,left,left,1,0,1,0.168,19,1,784,1597,1.597,3.0469999999999997,0
5b01842bc573030001c345e0,44,male,1,1,17,Clear_not_profit_side,1,90,1,20,right,left,left,1,0,1,0.155,19,1,784,1597,1.597,3.0469999999999997,0
5b01842bc573030001c345e0,44,male,1,1,20,Clear_not_profit_side,1,90,1,20,right,left,left,1,0,1,0.163,19,1,784,1597,1.597,3.0469999999999997,0
5b01842bc573030001c345e0,44,male,1,1,22,Clear_not_profit_side,1,90,1,20,right,left,left,1,0,1,0.214,19,1,784,1597,1.597,3.0469999999999997,0
5b01842bc573030001c345e0,44,male,1,1,24,Clear_not_profit_side,1,90,1,20,right,left,left,1,0,1,0.141,19,1,784,1597,1.597,3.0469999999999997,0
5b01842bc573030001c345e0,44,male,1,1,25,Clear_not_profit_side,1,90,1,20,right,left,right,0,-19,0,0.112,19,1,784,1597,1.597,3.0469999999999997,1
5b01842bc573030001c345e0,44,male,1,1,26,Clear_not_profit_side,1,90,1,20,right,left,left,1,0,1,0.155,19,1,784,1597,1.597,3.0469999999999997,0
5b01842bc573030001c345e0,44,male,1,1,30,Ambigous_left,1,90,1,20,right,left,right,0,-19,0,0.243,19,1,784,1597,1.597,3.0469999999999997,1
5b01842bc573030001c345e0,44,male,1,1,31,Ambigous_left,1,90,1,20,right,left,right,0,-19,0,0.221,19,1,784,1597,1.597,3.0469999999999997,1
5b01842bc573030001c345e0,44,male,1,1,32,Clear_not_profit_side,1,90,1,20,right,left,left,1,0,1,0.134,19,1,784,1597,1.597,3.0469999999999997,0
5b01842bc573030001c345e0,44,male,1,1,33,Clear_not_profit_side,1,90,1,20,right,left,right,0,-19,0,0.219,19,1,784,1597,1.597,3.0469999999999997,1
5b01842bc573030001c345e0,44,male,1,1,34,Ambigous_left,1,90,1,20,right,left,right,0,-19,0,0.189,19,1,784,1597,1.597,3.0469999999999997,1
5b01842bc573030001c345e0,44,male,1,1,35,Clear_not_profit_side,1,90,1,20,right,left,left,1,0,1,0.117,19,1,784,1597,1.597,3.0469999999999997,0
5b01842bc573030001c345e0,44,male,1,1,36,Ambigous_left,1,90,1,20,right,left,right,0,-19,0,0.11,19,1,784,1597,1.597,3.0469999999999997,1
5b01842bc573030001c345e0,44,male,1,1,38,Ambigous_left,1,90,1,20,right,left,right,0,-19,0,0.151,19,1,784,1597,1.597,3.0469999999999997,1
5b01842bc573030001c345e0,44,male,1,1,40,Ambigous_left,1,90,1,20,right,left,left,1,0,1,0.145,19,1,784,1597,1.597,3.0469999999999997,0
5b01842bc573030001c345e0,44,male,1,1,41,Ambigous_left,1,90,1,20,right,left,left,1,0,1,0.225,19,1,784,1597,1.597,3.0469999999999997,0
5b01842bc573030001c345e0,44,male,1,1,42,Clear_not_profit_side,1,90,1,20,right,left,left,1,0,1,0.134,19,1,784,1597,1.597,3.0469999999999997,0
5b01842bc573030001c345e0,44,male,1,1,44,Clear_not_profit_side,1,90,1,20,right,left,left,1,0,1,0.125,19,1,784,1597,1.597,3.0469999999999997,0
5b01842bc573030001c345e0,44,male,1,1,47,Ambigous_left,1,90,1,20,right,left,right,0,-19,0,0.18600000000000005,19,1,784,1597,1.597,3.0469999999999997,1
5b01842bc573030001c345e0,44,male,1,1,49,Clear_not_profit_side,1,90,1,20,right,left,left,1,0,1,0.111,19,1,784,1597,1.597,3.0469999999999997,0
5b01842bc573030001c345e0,44,male,1,1,53,Ambigous_left,1,90,1,20,right,left,right,0,-19,0,0.133,19,1,784,1597,1.597,3.0469999999999997,1
5b01842bc573030001c345e0,44,male,1,1,54,Ambigous_left,1,90,1,20,right,left,right,0,-19,0,0.26,19,1,784,1597,1.597,3.0469999999999997,1
5b01842bc573030001c345e0,44,male,1,1,55,Clear_not_profit_side,1,90,0,0,right,left,left,1,20,1,0.134,19,1,784,1597,1.597,3.0469999999999997,0
5b01842bc573030001c345e0,44,male,1,1,57,Ambigous_left,1,90,1,20,right,left,right,0,-19,0,0.139,19,1,784,1597,1.597,3.0469999999999997,1
5b01842bc573030001c345e0,44,male,1,1,58,Ambigous_left,1,90,1,20,right,left,left,1,0,1,0.136,19,1,784,1597,1.597,3.0469999999999997,0
5b01842bc573030001c345e0,44,male,1,1,59,Ambigous_left,1,90,1,20,right,left,left,1,0,1,0.14400000000000002,19,1,784,1597,1.597,3.0469999999999997,0
5b01842bc573030001c345e0,44,male,1,1,63,Ambigous_left,1,90,1,20,right,left,right,0,-19,0,0.154,19,1,784,1597,1.597,3.0469999999999997,1
5b01842bc573030001c345e0,44,male,1,1,64,Clear_not_profit_side,1,90,1,20,right,left,left,1,0,1,0.11,19,1,784,1597,1.597,3.0469999999999997,0
5b01842bc573030001c345e0,44,male,1,1,65,Clear_not_profit_side,1,90,1,20,right,left,left,1,0,1,0.261,19,1,784,1597,1.597,3.0469999999999997,0
5b01842bc573030001c345e0,44,male,1,1,66,Ambigous_left,1,90,1,20,right,left,left,1,0,1,0.129,19,1,784,1597,1.597,3.0469999999999997,0
5b01842bc573030001c345e0,44,male,1,1,67,Ambigous_left,1,90,1,20,right,left,left,1,0,1,0.121,19,1,784,1597,1.597,3.0469999999999997,0
5b01842bc573030001c345e0,44,male,1,1,68,Clear_not_profit_side,1,90,1,20,right,left,left,1,0,1,0.133,19,1,784,1597,1.597,3.0469999999999997,0
5b01842bc573030001c345e0,44,male,1,1,69,Clear_not_profit_side,1,90,1,20,right,left,right,0,-19,0,0.314,19,1,784,1597,1.597,3.0469999999999997,1
5b01842bc573030001c345e0,44,male,1,1,73,Clear_not_profit_side,1,90,1,20,right,left,left,1,0,1,0.202,19,1,784,1597,1.597,3.0469999999999997,0
5b01842bc573030001c345e0,44,male,1,1,74,Ambigous_left,1,90,1,20,right,left,left,1,0,1,0.199,19,1,784,1597,1.597,3.0469999999999997,0
5b01842bc573030001c345e0,44,male,1,1,75,Clear_not_profit_side,1,90,1,20,right,left,left,1,0,1,0.16399999999999998,19,1,784,1597,1.597,3.0469999999999997,0
5b01842bc573030001c345e0,44,male,1,1,76,Clear_not_profit_side,1,90,1,20,right,left,left,1,0,1,0.124,19,1,784,1597,1.597,3.0469999999999997,0
5b01842bc573030001c345e0,44,male,1,1,82,Ambigous_left,1,90,1,20,right,left,left,1,0,1,0.141,19,1,784,1597,1.597,3.0469999999999997,0
5b01842bc573030001c345e0,44,male,1,1,83,Clear_not_profit_side,1,90,1,20,right,left,left,1,0,1,0.136,19,1,784,1597,1.597,3.0469999999999997,0
5b01842bc573030001c345e0,44,male,1,1,84,Clear_not_profit_side,1,90,1,20,right,left,left,1,0,1,0.121,19,1,784,1597,1.597,3.0469999999999997,0
5b01842bc573030001c345e0,44,male,1,1,85,Clear_not_profit_side,1,90,1,20,right,left,left,1,0,1,0.142,19,1,784,1597,1.597,3.0469999999999997,0
5b01842bc573030001c345e0,44,male,1,1,86,Clear_not_profit_side,1,90,1,20,right,left,left,1,0,1,0.132,19,1,784,1597,1.597,3.0469999999999997,0
5b01842bc573030001c345e0,44,male,1,1,87,Ambigous_left,1,90,1,20,right,left,left,1,0,1,0.151,19,1,784,1597,1.597,3.0469999999999997,0
5b01842bc573030001c345e0,44,male,1,1,89,Clear_not_profit_side,1,90,1,20,right,left,left,1,0,1,0.128,19,1,784,1597,1.597,3.0469999999999997,0
5b01842bc573030001c345e0,44,male,1,1,90,Clear_not_profit_side,1,90,1,20,right,left,left,1,0,1,0.128,19,1,784,1597,1.597,3.0469999999999997,0
5b01842bc573030001c345e0,44,male,1,1,91,Ambigous_left,1,90,1,20,right,left,left,1,0,1,0.138,19,1,784,1597,1.597,3.0469999999999997,0
5b01842bc573030001c345e0,44,male,1,1,92,Clear_not_profit_side,1,90,0,0,right,left,left,1,20,1,0.127,19,1,784,1597,1.597,3.0469999999999997,0
5b01842bc573030001c345e0,44,male,1,1,94,Clear_not_profit_side,1,90,1,20,right,left,left,1,0,1,0.125,19,1,784,1597,1.597,3.0469999999999997,0
5b01842bc573030001c345e0,44,male,1,1,95,Ambigous_left,1,90,1,20,right,left,right,0,-19,0,0.136,19,1,784,1597,1.597,3.0469999999999997,1
5b01842bc573030001c345e0,44,male,1,1,97,Clear_not_profit_side,1,90,1,20,right,left,left,1,0,1,0.132,19,1,784,1597,1.597,3.0469999999999997,0
5b01842bc573030001c345e0,44,male,1,2,1,Ambigous_left,1,90,1,20,right,left,right,0,-19,0,0.177,10,1,813,1597,1.597,3.0469999999999997,1
5b01842bc573030001c345e0,44,male,1,2,3,Clear_not_profit_side,1,90,1,20,right,left,left,1,0,1,0.221,10,1,813,1597,1.597,3.0469999999999997,0
5b01842bc573030001c345e0,44,male,1,2,4,Clear_not_profit_side,1,90,1,20,right,left,left,1,0,1,0.153,10,1,813,1597,1.597,3.0469999999999997,0
5b01842bc573030001c345e0,44,male,1,2,5,Clear_not_profit_side,1,90,1,20,right,left,left,1,0,1,0.158,10,1,813,1597,1.597,3.0469999999999997,0
5b01842bc573030001c345e0,44,male,1,2,8,Ambigous_left,1,90,1,20,right,left,left,1,0,1,0.132,10,1,813,1597,1.597,3.0469999999999997,0
5b01842bc573030001c345e0,44,male,1,2,9,Clear_not_profit_side,1,90,1,20,right,left,left,1,0,1,0.116,10,1,813,1597,1.597,3.0469999999999997,0
5b01842bc573030001c345e0,44,male,1,2,11,Ambigous_left,1,90,0,0,right,left,left,1,20,1,0.334,10,1,813,1597,1.597,3.0469999999999997,0
5b01842bc573030001c345e0,44,male,1,2,12,Clear_not_profit_side,1,90,0,0,right,left,left,1,20,1,0.145,10,1,813,1597,1.597,3.0469999999999997,0
5b01842bc573030001c345e0,44,male,1,2,13,Ambigous_left,1,90,1,20,right,left,right,0,-19,0,0.118,10,1,813,1597,1.597,3.0469999999999997,1
5b01842bc573030001c345e0,44,male,1,2,16,Clear_not_profit_side,1,90,1,20,right,left,left,1,0,1,0.11,10,1,813,1597,1.597,3.0469999999999997,0
5b01842bc573030001c345e0,44,male,1,2,17,Ambigous_left,1,90,1,20,right,left,right,0,-19,0,0.147,10,1,813,1597,1.597,3.0469999999999997,1
5b01842bc573030001c345e0,44,male,1,2,18,Clear_not_profit_side,1,90,0,0,right,left,left,1,20,1,0.113,10,1,813,1597,1.597,3.0469999999999997,0
5b01842bc573030001c345e0,44,male,1,2,21,Ambigous_left,1,90,1,20,right,left,left,1,0,1,0.194,10,1,813,1597,1.597,3.0469999999999997,0
5b01842bc573030001c345e0,44,male,1,2,22,Ambigous_left,1,90,0,0,right,left,left,1,20,1,0.278,10,1,813,1597,1.597,3.0469999999999997,0
5b01842bc573030001c345e0,44,male,1,2,23,Ambigous_left,1,90,1,20,right,left,left,1,0,1,0.152,10,1,813,1597,1.597,3.0469999999999997,0
5b01842bc573030001c345e0,44,male,1,2,25,Ambigous_left,1,90,0,0,right,left,left,1,20,1,0.313,10,1,813,1597,1.597,3.0469999999999997,0
5b01842bc573030001c345e0,44,male,1,2,27,Clear_not_profit_side,1,90,1,20,right,left,left,1,0,1,0.145,10,1,813,1597,1.597,3.0469999999999997,0
5b01842bc573030001c345e0,44,male,1,2,28,Clear_not_profit_side,1,90,1,20,right,left,left,1,0,1,0.136,10,1,813,1597,1.597,3.0469999999999997,0
5b01842bc573030001c345e0,44,male,1,2,30,Ambigous_left,1,90,1,20,right,left,left,1,0,1,0.234,10,1,813,1597,1.597,3.0469999999999997,0
5b01842bc573030001c345e0,44,male,1,2,31,Clear_not_profit_side,1,90,1,20,right,left,left,1,0,1,0.128,10,1,813,1597,1.597,3.0469999999999997,0
5b01842bc573030001c345e0,44,male,1,2,32,Ambigous_left,1,90,1,20,right,left,right,0,-19,0,0.21600000000000005,10,1,813,1597,1.597,3.0469999999999997,1
5b01842bc573030001c345e0,44,male,1,2,34,Ambigous_left,1,90,1,20,right,left,left,1,0,1,0.113,10,1,813,1597,1.597,3.0469999999999997,0
5b01842bc573030001c345e0,44,male,1,2,36,Clear_not_profit_side,1,90,1,20,right,left,left,1,0,1,0.121,10,1,813,1597,1.597,3.0469999999999997,0
5b01842bc573030001c345e0,44,male,1,2,38,Clear_not_profit_side,1,90,1,20,right,left,right,0,-19,0,0.321,10,1,813,1597,1.597,3.0469999999999997,1
5b01842bc573030001c345e0,44,male,1,2,42,Clear_not_profit_side,1,90,1,20,right,left,left,1,0,1,0.116,10,1,813,1597,1.597,3.0469999999999997,0
5b01842bc573030001c345e0,44,male,1,2,44,Ambigous_left,1,90,1,20,right,left,left,1,0,1,0.16899999999999998,10,1,813,1597,1.597,3.0469999999999997,0
5b01842bc573030001c345e0,44,male,1,2,45,Ambigous_left,1,90,1,20,right,left,right,0,-19,0,0.134,10,1,813,1597,1.597,3.0469999999999997,1
5b01842bc573030001c345e0,44,male,1,2,47,Ambigous_left,1,90,1,20,right,left,left,1,0,1,0.162,10,1,813,1597,1.597,3.0469999999999997,0
5b01842bc573030001c345e0,44,male,1,2,49,Ambigous_left,1,90,1,20,right,left,left,1,0,1,0.13699999999999998,10,1,813,1597,1.597,3.0469999999999997,0
5b01842bc573030001c345e0,44,male,1,2,51,Ambigous_left,1,90,0,0,right,left,left,1,20,1,0.124,10,1,813,1597,1.597,3.0469999999999997,0
5b01842bc573030001c345e0,44,male,1,2,52,Clear_not_profit_side,1,90,1,20,right,left,left,1,0,1,0.199,10,1,813,1597,1.597,3.0469999999999997,0
5b01842bc573030001c345e0,44,male,1,2,58,Clear_not_profit_side,1,90,1,20,right,left,left,1,0,1,0.182,10,1,813,1597,1.597,3.0469999999999997,0
5b01842bc573030001c345e0,44,male,1,2,59,Ambigous_left,1,90,1,20,right,left,right,0,-19,0,0.126,10,1,813,1597,1.597,3.0469999999999997,1
5b01842bc573030001c345e0,44,male,1,2,60,Clear_not_profit_side,1,90,0,0,right,left,left,1,20,1,0.14,10,1,813,1597,1.597,3.0469999999999997,0
5b01842bc573030001c345e0,44,male,1,2,61,Ambigous_left,1,90,1,20,right,left,left,1,0,1,0.21,10,1,813,1597,1.597,3.0469999999999997,0
5b01842bc573030001c345e0,44,male,1,2,62,Ambigous_left,1,90,1,20,right,left,left,1,0,1,0.233,10,1,813,1597,1.597,3.0469999999999997,0
5b01842bc573030001c345e0,44,male,1,2,64,Clear_not_profit_side,1,90,1,20,right,left,left,1,0,1,0.1,10,1,813,1597,1.597,3.0469999999999997,0
5b01842bc573030001c345e0,44,male,1,2,65,Ambigous_left,1,90,1,20,right,left,right,0,-19,0,0.1,10,1,813,1597,1.597,3.0469999999999997,1
5b01842bc573030001c345e0,44,male,1,2,66,Clear_not_profit_side,1,90,1,20,right,left,left,1,0,1,0.135,10,1,813,1597,1.597,3.0469999999999997,0
5b01842bc573030001c345e0,44,male,1,2,68,Clear_not_profit_side,1,90,1,20,right,left,left,1,0,1,0.114,10,1,813,1597,1.597,3.0469999999999997,0
5b01842bc573030001c345e0,44,male,1,2,70,Clear_not_profit_side,1,90,0,0,right,left,left,1,20,1,0.151,10,1,813,1597,1.597,3.0469999999999997,0
5b01842bc573030001c345e0,44,male,1,2,71,Clear_not_profit_side,1,90,0,0,right,left,left,1,20,1,0.154,10,1,813,1597,1.597,3.0469999999999997,0
5b01842bc573030001c345e0,44,male,1,2,73,Clear_not_profit_side,1,90,1,20,right,left,left,1,0,1,0.125,10,1,813,1597,1.597,3.0469999999999997,0
5b01842bc573030001c345e0,44,male,1,2,74,Clear_not_profit_side,1,90,1,20,right,left,left,1,0,1,0.126,10,1,813,1597,1.597,3.0469999999999997,0
5b01842bc573030001c345e0,44,male,1,2,76,Clear_not_profit_side,1,90,1,20,right,left,left,1,0,1,0.158,10,1,813,1597,1.597,3.0469999999999997,0
5b01842bc573030001c345e0,44,male,1,2,77,Ambigous_left,1,90,1,20,right,left,left,1,0,1,0.282,10,1,813,1597,1.597,3.0469999999999997,0
5b01842bc573030001c345e0,44,male,1,2,80,Clear_not_profit_side,1,90,1,20,right,left,left,1,0,1,0.124,10,1,813,1597,1.597,3.0469999999999997,0
5b01842bc573030001c345e0,44,male,1,2,82,Ambigous_left,1,90,0,0,right,left,left,1,20,1,0.166,10,1,813,1597,1.597,3.0469999999999997,0
5b01842bc573030001c345e0,44,male,1,2,83,Clear_not_profit_side,1,90,1,20,right,left,left,1,0,1,0.128,10,1,813,1597,1.597,3.0469999999999997,0
5b01842bc573030001c345e0,44,male,1,2,84,Clear_not_profit_side,1,90,1,20,right,left,left,1,0,1,0.119,10,1,813,1597,1.597,3.0469999999999997,0
5b01842bc573030001c345e0,44,male,1,2,86,Clear_not_profit_side,1,90,1,20,right,left,left,1,0,1,0.118,10,1,813,1597,1.597,3.0469999999999997,0
5b01842bc573030001c345e0,44,male,1,2,87,Clear_not_profit_side,1,90,1,20,right,left,left,1,0,1,0.131,10,1,813,1597,1.597,3.0469999999999997,0
5b01842bc573030001c345e0,44,male,1,2,91,Ambigous_left,1,90,1,20,right,left,left,1,0,1,0.192,10,1,813,1597,1.597,3.0469999999999997,0
5b01842bc573030001c345e0,44,male,1,2,92,Clear_not_profit_side,1,90,0,0,right,left,left,1,20,1,0.112,10,1,813,1597,1.597,3.0469999999999997,0
5b01842bc573030001c345e0,44,male,1,2,93,Ambigous_left,1,90,0,0,right,left,left,1,20,1,0.124,10,1,813,1597,1.597,3.0469999999999997,0
5b01842bc573030001c345e0,44,male,1,2,95,Clear_not_profit_side,1,90,1,20,right,left,left,1,0,1,0.127,10,1,813,1597,1.597,3.0469999999999997,0
5b01842bc573030001c345e0,44,male,1,2,97,Clear_not_profit_side,1,90,1,20,right,left,left,1,0,1,0.126,10,1,813,1597,1.597,3.0469999999999997,0
5b01842bc573030001c345e0,44,male,1,2,99,Clear_not_profit_side,1,90,1,20,right,left,left,1,0,1,0.122,10,1,813,1597,1.597,3.0469999999999997,0
5b01842bc573030001c345e0,44,male,1,2,100,Clear_not_profit_side,1,90,1,20,right,left,left,1,0,1,0.155,10,1,813,1597,1.597,3.0469999999999997,0
5c8d2f74e775150016db3700,20,female,0,1,1,Ambigous_right,1,90,1,20,left,right,left,0,-19,0,0.379,5,1,760,1553,1.5530000000000002,3.003,1
5c8d2f74e775150016db3700,20,female,0,1,2,Ambigous_right,1,90,1,20,left,right,right,1,0,1,0.328,5,1,760,1553,1.5530000000000002,3.003,0
5c8d2f74e775150016db3700,20,female,0,1,3,Clear_not_profit_side,1,90,1,20,left,right,right,1,0,1,0.188,5,1,760,1553,1.5530000000000002,3.003,0
5c8d2f74e775150016db3700,20,female,0,1,9,Clear_not_profit_side,1,90,1,20,left,right,right,1,0,1,0.205,5,1,760,1553,1.5530000000000002,3.003,0
5c8d2f74e775150016db3700,20,female,0,1,10,Clear_not_profit_side,1,90,1,20,left,right,right,1,0,1,0.221,5,1,760,1553,1.5530000000000002,3.003,0
5c8d2f74e775150016db3700,20,female,0,1,11,Clear_not_profit_side,1,90,1,20,left,right,right,1,0,1,0.358,5,1,760,1553,1.5530000000000002,3.003,0
5c8d2f74e775150016db3700,20,female,0,1,13,Clear_not_profit_side,1,90,1,20,left,right,right,1,0,1,0.189,5,1,760,1553,1.5530000000000002,3.003,0
5c8d2f74e775150016db3700,20,female,0,1,16,Clear_not_profit_side,1,90,1,20,left,right,right,1,0,1,0.204,5,1,760,1553,1.5530000000000002,3.003,0
5c8d2f74e775150016db3700,20,female,0,1,18,Ambigous_right,1,90,1,20,left,right,right,1,0,1,0.259,5,1,760,1553,1.5530000000000002,3.003,0
5c8d2f74e775150016db3700,20,female,0,1,19,Ambigous_right,1,90,1,20,left,right,right,1,0,1,0.25,5,1,760,1553,1.5530000000000002,3.003,0
5c8d2f74e775150016db3700,20,female,0,1,21,Clear_not_profit_side,1,90,1,20,left,right,right,1,0,1,0.204,5,1,760,1553,1.5530000000000002,3.003,0
5c8d2f74e775150016db3700,20,female,0,1,23,Ambigous_right,1,90,1,20,left,right,right,1,0,1,0.226,5,1,760,1553,1.5530000000000002,3.003,0
5c8d2f74e775150016db3700,20,female,0,1,24,Clear_not_profit_side,1,90,1,20,left,right,right,1,0,1,0.183,5,1,760,1553,1.5530000000000002,3.003,0
5c8d2f74e775150016db3700,20,female,0,1,26,Ambigous_right,1,90,1,20,left,right,right,1,0,1,0.165,5,1,760,1553,1.5530000000000002,3.003,0
5c8d2f74e775150016db3700,20,female,0,1,27,Ambigous_right,1,90,1,20,left,right,right,1,0,1,0.17,5,1,760,1553,1.5530000000000002,3.003,0
5c8d2f74e775150016db3700,20,female,0,1,29,Ambigous_right,1,90,1,20,left,right,right,1,0,1,0.162,5,1,760,1553,1.5530000000000002,3.003,0
5c8d2f74e775150016db3700,20,female,0,1,30,Ambigous_right,1,90,1,20,left,right,right,1,0,1,0.163,5,1,760,1553,1.5530000000000002,3.003,0
5c8d2f74e775150016db3700,20,female,0,1,31,Clear_not_profit_side,1,90,1,20,left,right,right,1,0,1,0.149,5,1,760,1553,1.5530000000000002,3.003,0
5c8d2f74e775150016db3700,20,female,0,1,35,Clear_not_profit_side,1,90,1,20,left,right,right,1,0,1,0.162,5,1,760,1553,1.5530000000000002,3.003,0
5c8d2f74e775150016db3700,20,female,0,1,38,Clear_not_profit_side,1,90,1,20,left,right,right,1,0,1,0.14800000000000002,5,1,760,1553,1.5530000000000002,3.003,0
5c8d2f74e775150016db3700,20,female,0,1,42,Ambigous_right,1,90,1,20,left,right,right,1,0,1,0.142,5,1,760,1553,1.5530000000000002,3.003,0
5c8d2f74e775150016db3700,20,female,0,1,44,Clear_not_profit_side,1,90,1,20,left,right,right,1,0,1,0.124,5,1,760,1553,1.5530000000000002,3.003,0
5c8d2f74e775150016db3700,20,female,0,1,45,Clear_not_profit_side,1,90,1,20,left,right,right,1,0,1,0.183,5,1,760,1553,1.5530000000000002,3.003,0
5c8d2f74e775150016db3700,20,female,0,1,47,Clear_not_profit_side,1,90,1,20,left,right,right,1,0,1,0.138,5,1,760,1553,1.5530000000000002,3.003,0
5c8d2f74e775150016db3700,20,female,0,1,48,Clear_not_profit_side,1,90,1,20,left,right,right,1,0,1,0.166,5,1,760,1553,1.5530000000000002,3.003,0
5c8d2f74e775150016db3700,20,female,0,1,49,Clear_not_profit_side,1,90,1,20,left,right,right,1,0,1,0.15,5,1,760,1553,1.5530000000000002,3.003,0
5c8d2f74e775150016db3700,20,female,0,1,50,Ambigous_right,1,90,0,0,left,right,right,1,20,1,0.173,5,1,760,1553,1.5530000000000002,3.003,0
5c8d2f74e775150016db3700,20,female,0,1,51,Ambigous_right,1,90,1,20,left,right,right,1,0,1,0.16899999999999998,5,1,760,1553,1.5530000000000002,3.003,0
5c8d2f74e775150016db3700,20,female,0,1,53,Ambigous_right,1,90,1,20,left,right,right,1,0,1,0.16699999999999998,5,1,760,1553,1.5530000000000002,3.003,0
5c8d2f74e775150016db3700,20,female,0,1,55,Clear_not_profit_side,1,90,1,20,left,right,right,1,0,1,0.116,5,1,760,1553,1.5530000000000002,3.003,0
5c8d2f74e775150016db3700,20,female,0,1,57,Clear_not_profit_side,1,90,1,20,left,right,right,1,0,1,0.134,5,1,760,1553,1.5530000000000002,3.003,0
5c8d2f74e775150016db3700,20,female,0,1,58,Clear_not_profit_side,1,90,1,20,left,right,right,1,0,1,0.146,5,1,760,1553,1.5530000000000002,3.003,0
5c8d2f74e775150016db3700,20,female,0,1,61,Clear_not_profit_side,1,90,1,20,left,right,right,1,0,1,0.13,5,1,760,1553,1.5530000000000002,3.003,0
5c8d2f74e775150016db3700,20,female,0,1,62,Ambigous_right,1,90,1,20,left,right,left,0,-19,0,0.236,5,1,760,1553,1.5530000000000002,3.003,1
5c8d2f74e775150016db3700,20,female,0,1,63,Clear_not_profit_side,1,90,1,20,left,right,right,1,0,1,0.14300000000000002,5,1,760,1553,1.5530000000000002,3.003,0
5c8d2f74e775150016db3700,20,female,0,1,64,Ambigous_right,1,90,1,20,left,right,right,1,0,1,0.174,5,1,760,1553,1.5530000000000002,3.003,0
5c8d2f74e775150016db3700,20,female,0,1,65,Clear_not_profit_side,1,90,1,20,left,right,right,1,0,1,0.136,5,1,760,1553,1.5530000000000002,3.003,0
5c8d2f74e775150016db3700,20,female,0,1,66,Ambigous_right,1,90,1,20,left,right,right,1,0,1,0.151,5,1,760,1553,1.5530000000000002,3.003,0
5c8d2f74e775150016db3700,20,female,0,1,67,Clear_not_profit_side,1,90,1,20,left,right,right,1,0,1,0.14,5,1,760,1553,1.5530000000000002,3.003,0
5c8d2f74e775150016db3700,20,female,0,1,68,Clear_not_profit_side,1,90,1,20,left,right,right,1,0,1,0.134,5,1,760,1553,1.5530000000000002,3.003,0
5c8d2f74e775150016db3700,20,female,0,1,69,Ambigous_right,1,90,1,20,left,right,right,1,0,1,0.168,5,1,760,1553,1.5530000000000002,3.003,0
5c8d2f74e775150016db3700,20,female,0,1,70,Ambigous_right,1,90,1,20,left,right,right,1,0,1,0.119,5,1,760,1553,1.5530000000000002,3.003,0
5c8d2f74e775150016db3700,20,female,0,1,71,Clear_not_profit_side,1,90,1,20,left,right,right,1,0,1,0.16,5,1,760,1553,1.5530000000000002,3.003,0
5c8d2f74e775150016db3700,20,female,0,1,72,Clear_not_profit_side,1,90,1,20,left,right,right,1,0,1,0.147,5,1,760,1553,1.5530000000000002,3.003,0
5c8d2f74e775150016db3700,20,female,0,1,74,Ambigous_right,1,90,1,20,left,right,right,1,0,1,0.131,5,1,760,1553,1.5530000000000002,3.003,0
5c8d2f74e775150016db3700,20,female,0,1,75,Ambigous_right,1,90,1,20,left,right,right,1,0,1,0.161,5,1,760,1553,1.5530000000000002,3.003,0
5c8d2f74e775150016db3700,20,female,0,1,76,Clear_not_profit_side,1,90,1,20,left,right,right,1,0,1,0.147,5,1,760,1553,1.5530000000000002,3.003,0
5c8d2f74e775150016db3700,20,female,0,1,77,Clear_not_profit_side,1,90,1,20,left,right,right,1,0,1,0.14400000000000002,5,1,760,1553,1.5530000000000002,3.003,0
5c8d2f74e775150016db3700,20,female,0,1,78,Clear_not_profit_side,1,90,1,20,left,right,right,1,0,1,0.13699999999999998,5,1,760,1553,1.5530000000000002,3.003,0
5c8d2f74e775150016db3700,20,female,0,1,85,Clear_not_profit_side,1,90,1,20,left,right,right,1,0,1,0.13699999999999998,5,1,760,1553,1.5530000000000002,3.003,0
5c8d2f74e775150016db3700,20,female,0,1,86,Ambigous_right,1,90,1,20,left,right,right,1,0,1,0.14400000000000002,5,1,760,1553,1.5530000000000002,3.003,0
5c8d2f74e775150016db3700,20,female,0,1,88,Clear_not_profit_side,1,90,1,20,left,right,right,1,0,1,0.151,5,1,760,1553,1.5530000000000002,3.003,0
5c8d2f74e775150016db3700,20,female,0,1,89,Clear_not_profit_side,1,90,1,20,left,right,right,1,0,1,0.121,5,1,760,1553,1.5530000000000002,3.003,0
5c8d2f74e775150016db3700,20,female,0,1,91,Ambigous_right,1,90,1,20,left,right,right,1,0,1,0.114,5,1,760,1553,1.5530000000000002,3.003,0
5c8d2f74e775150016db3700,20,female,0,1,92,Clear_not_profit_side,1,90,1,20,left,right,right,1,0,1,0.146,5,1,760,1553,1.5530000000000002,3.003,0
5c8d2f74e775150016db3700,20,female,0,1,93,Clear_not_profit_side,1,90,1,20,left,right,right,1,0,1,0.158,5,1,760,1553,1.5530000000000002,3.003,0
5c8d2f74e775150016db3700,20,female,0,1,98,Ambigous_right,1,90,1,20,left,right,right,1,0,1,0.135,5,1,760,1553,1.5530000000000002,3.003,0
5c8d2f74e775150016db3700,20,female,0,1,99,Ambigous_right,1,90,1,20,left,right,right,1,0,1,0.124,5,1,760,1553,1.5530000000000002,3.003,0
5c8d2f74e775150016db3700,20,female,0,1,100,Ambigous_right,1,90,1,20,left,right,right,1,0,1,0.153,5,1,760,1553,1.5530000000000002,3.003,0
5c8d2f74e775150016db3700,20,female,0,2,1,Ambigous_right,1,90,1,20,left,right,right,1,0,1,0.412,10,1,793,1553,1.5530000000000002,3.003,0
5c8d2f74e775150016db3700,20,female,0,2,2,Ambigous_right,1,90,1,20,left,right,right,1,0,1,0.147,10,1,793,1553,1.5530000000000002,3.003,0
5c8d2f74e775150016db3700,20,female,0,2,3,Clear_not_profit_side,1,90,1,20,left,right,right,1,0,1,0.151,10,1,793,1553,1.5530000000000002,3.003,0
5c8d2f74e775150016db3700,20,female,0,2,4,Clear_not_profit_side,1,90,1,20,left,right,right,1,0,1,0.138,10,1,793,1553,1.5530000000000002,3.003,0
5c8d2f74e775150016db3700,20,female,0,2,5,Clear_not_profit_side,1,90,0,0,left,right,right,1,20,1,0.113,10,1,793,1553,1.5530000000000002,3.003,0
5c8d2f74e775150016db3700,20,female,0,2,6,Ambigous_right,1,90,1,20,left,right,left,0,-19,0,0.146,10,1,793,1553,1.5530000000000002,3.003,1
5c8d2f74e775150016db3700,20,female,0,2,7,Ambigous_right,1,90,1,20,left,right,right,1,0,1,0.12,10,1,793,1553,1.5530000000000002,3.003,0
5c8d2f74e775150016db3700,20,female,0,2,8,Ambigous_right,1,90,1,20,left,right,right,1,0,1,0.158,10,1,793,1553,1.5530000000000002,3.003,0
5c8d2f74e775150016db3700,20,female,0,2,9,Clear_not_profit_side,1,90,1,20,left,right,right,1,0,1,0.128,10,1,793,1553,1.5530000000000002,3.003,0
5c8d2f74e775150016db3700,20,female,0,2,10,Clear_not_profit_side,1,90,0,0,left,right,right,1,20,1,0.136,10,1,793,1553,1.5530000000000002,3.003,0
5c8d2f74e775150016db3700,20,female,0,2,11,Clear_not_profit_side,1,90,1,20,left,right,right,1,0,1,0.14,10,1,793,1553,1.5530000000000002,3.003,0
5c8d2f74e775150016db3700,20,female,0,2,13,Ambigous_right,1,90,1,20,left,right,right,1,0,1,0.16699999999999998,10,1,793,1553,1.5530000000000002,3.003,0
5c8d2f74e775150016db3700,20,female,0,2,14,Clear_not_profit_side,1,90,1,20,left,right,right,1,0,1,0.133,10,1,793,1553,1.5530000000000002,3.003,0
5c8d2f74e775150016db3700,20,female,0,2,16,Ambigous_right,1,90,1,20,left,right,right,1,0,1,0.136,10,1,793,1553,1.5530000000000002,3.003,0
5c8d2f74e775150016db3700,20,female,0,2,20,Ambigous_right,1,90,1,20,left,right,right,1,0,1,0.14,10,1,793,1553,1.5530000000000002,3.003,0
5c8d2f74e775150016db3700,20,female,0,2,21,Clear_not_profit_side,1,90,1,20,left,right,right,1,0,1,0.138,10,1,793,1553,1.5530000000000002,3.003,0
5c8d2f74e775150016db3700,20,female,0,2,22,Ambigous_right,1,90,1,20,left,right,left,0,-19,0,0.154,10,1,793,1553,1.5530000000000002,3.003,1
5c8d2f74e775150016db3700,20,female,0,2,25,Clear_not_profit_side,1,90,1,20,left,right,right,1,0,1,0.133,10,1,793,1553,1.5530000000000002,3.003,0
5c8d2f74e775150016db3700,20,female,0,2,27,Ambigous_right,1,90,0,0,left,right,right,1,20,1,0.145,10,1,793,1553,1.5530000000000002,3.003,0
5c8d2f74e775150016db3700,20,female,0,2,28,Clear_not_profit_side,1,90,1,20,left,right,right,1,0,1,0.134,10,1,793,1553,1.5530000000000002,3.003,0
5c8d2f74e775150016db3700,20,female,0,2,34,Ambigous_right,1,90,0,0,left,right,right,1,20,1,0.129,10,1,793,1553,1.5530000000000002,3.003,0
5c8d2f74e775150016db3700,20,female,0,2,35,Clear_not_profit_side,1,90,1,20,left,right,right,1,0,1,0.16,10,1,793,1553,1.5530000000000002,3.003,0
5c8d2f74e775150016db3700,20,female,0,2,36,Ambigous_right,1,90,1,20,left,right,left,0,-19,0,0.145,10,1,793,1553,1.5530000000000002,3.003,1
5c8d2f74e775150016db3700,20,female,0,2,37,Clear_not_profit_side,1,90,1,20,left,right,right,1,0,1,0.133,10,1,793,1553,1.5530000000000002,3.003,0
5c8d2f74e775150016db3700,20,female,0,2,39,Clear_not_profit_side,1,90,1,20,left,right,right,1,0,1,0.126,10,1,793,1553,1.5530000000000002,3.003,0
5c8d2f74e775150016db3700,20,female,0,2,41,Clear_not_profit_side,1,90,1,20,left,right,right,1,0,1,0.119,10,1,793,1553,1.5530000000000002,3.003,0
5c8d2f74e775150016db3700,20,female,0,2,44,Ambigous_right,1,90,1,20,left,right,right,1,0,1,0.128,10,1,793,1553,1.5530000000000002,3.003,0
5c8d2f74e775150016db3700,20,female,0,2,47,Clear_not_profit_side,1,90,1,20,left,right,right,1,0,1,0.189,10,1,793,1553,1.5530000000000002,3.003,0
5c8d2f74e775150016db3700,20,female,0,2,48,Ambigous_right,1,90,1,20,left,right,right,1,0,1,0.15,10,1,793,1553,1.5530000000000002,3.003,0
5c8d2f74e775150016db3700,20,female,0,2,49,Ambigous_right,1,90,1,20,left,right,right,1,0,1,0.175,10,1,793,1553,1.5530000000000002,3.003,0
5c8d2f74e775150016db3700,20,female,0,2,50,Ambigous_right,1,90,1,20,left,right,right,1,0,1,0.147,10,1,793,1553,1.5530000000000002,3.003,0
5c8d2f74e775150016db3700,20,female,0,2,51,Clear_not_profit_side,1,90,1,20,left,right,right,1,0,1,0.125,10,1,793,1553,1.5530000000000002,3.003,0
5c8d2f74e775150016db3700,20,female,0,2,53,Clear_not_profit_side,1,90,1,20,left,right,right,1,0,1,0.112,10,1,793,1553,1.5530000000000002,3.003,0
5c8d2f74e775150016db3700,20,female,0,2,54,Clear_not_profit_side,1,90,1,20,left,right,right,1,0,1,0.119,10,1,793,1553,1.5530000000000002,3.003,0
5c8d2f74e775150016db3700,20,female,0,2,57,Clear_not_profit_side,1,90,1,20,left,right,right,1,0,1,0.118,10,1,793,1553,1.5530000000000002,3.003,0
5c8d2f74e775150016db3700,20,female,0,2,61,Ambigous_right,1,90,1,20,left,right,left,0,-19,0,0.156,10,1,793,1553,1.5530000000000002,3.003,1
5c8d2f74e775150016db3700,20,female,0,2,62,Ambigous_right,1,90,1,20,left,right,right,1,0,1,0.16899999999999998,10,1,793,1553,1.5530000000000002,3.003,0
5c8d2f74e775150016db3700,20,female,0,2,63,Ambigous_right,1,90,1,20,left,right,right,1,0,1,0.146,10,1,793,1553,1.5530000000000002,3.003,0
5c8d2f74e775150016db3700,20,female,0,2,64,Ambigous_right,1,90,1,20,left,right,right,1,0,1,0.162,10,1,793,1553,1.5530000000000002,3.003,0
5c8d2f74e775150016db3700,20,female,0,2,66,Clear_not_profit_side,1,90,1,20,left,right,right,1,0,1,0.147,10,1,793,1553,1.5530000000000002,3.003,0
5c8d2f74e775150016db3700,20,female,0,2,69,Clear_not_profit_side,1,90,1,20,left,right,right,1,0,1,0.128,10,1,793,1553,1.5530000000000002,3.003,0
5c8d2f74e775150016db3700,20,female,0,2,71,Ambigous_right,1,90,1,20,left,right,right,1,0,1,0.154,10,1,793,1553,1.5530000000000002,3.003,0
5c8d2f74e775150016db3700,20,female,0,2,73,Clear_not_profit_side,1,90,1,20,left,right,right,1,0,1,0.138,10,1,793,1553,1.5530000000000002,3.003,0
5c8d2f74e775150016db3700,20,female,0,2,74,Clear_not_profit_side,1,90,1,20,left,right,right,1,0,1,0.117,10,1,793,1553,1.5530000000000002,3.003,0
5c8d2f74e775150016db3700,20,female,0,2,75,Clear_not_profit_side,1,90,1,20,left,right,right,1,0,1,0.13,10,1,793,1553,1.5530000000000002,3.003,0
5c8d2f74e775150016db3700,20,female,0,2,76,Ambigous_right,1,90,1,20,left,right,left,0,-19,0,0.17,10,1,793,1553,1.5530000000000002,3.003,1
5c8d2f74e775150016db3700,20,female,0,2,77,Clear_not_profit_side,1,90,1,20,left,right,right,1,0,1,0.129,10,1,793,1553,1.5530000000000002,3.003,0
5c8d2f74e775150016db3700,20,female,0,2,78,Clear_not_profit_side,1,90,1,20,left,right,right,1,0,1,0.174,10,1,793,1553,1.5530000000000002,3.003,0
5c8d2f74e775150016db3700,20,female,0,2,82,Clear_not_profit_side,1,90,0,0,left,right,right,1,20,1,0.16699999999999998,10,1,793,1553,1.5530000000000002,3.003,0
5c8d2f74e775150016db3700,20,female,0,2,83,Clear_not_profit_side,1,90,1,20,left,right,right,1,0,1,0.152,10,1,793,1553,1.5530000000000002,3.003,0
5c8d2f74e775150016db3700,20,female,0,2,84,Ambigous_right,1,90,1,20,left,right,left,0,-19,0,0.267,10,1,793,1553,1.5530000000000002,3.003,1
5c8d2f74e775150016db3700,20,female,0,2,86,Ambigous_right,1,90,1,20,left,right,left,0,-19,0,0.14800000000000002,10,1,793,1553,1.5530000000000002,3.003,1
5c8d2f74e775150016db3700,20,female,0,2,88,Clear_not_profit_side,1,90,1,20,left,right,right,1,0,1,0.17800000000000002,10,1,793,1553,1.5530000000000002,3.003,0
5c8d2f74e775150016db3700,20,female,0,2,89,Clear_not_profit_side,1,90,1,20,left,right,right,1,0,1,0.273,10,1,793,1553,1.5530000000000002,3.003,0
5c8d2f74e775150016db3700,20,female,0,2,90,Ambigous_right,1,90,1,20,left,right,left,0,-19,0,0.194,10,1,793,1553,1.5530000000000002,3.003,1
5c8d2f74e775150016db3700,20,female,0,2,91,Clear_not_profit_side,1,90,0,0,left,right,right,1,20,1,0.168,10,1,793,1553,1.5530000000000002,3.003,0
5c8d2f74e775150016db3700,20,female,0,2,94,Clear_not_profit_side,1,90,1,20,left,right,right,1,0,1,0.165,10,1,793,1553,1.5530000000000002,3.003,0
5c8d2f74e775150016db3700,20,female,0,2,95,Clear_not_profit_side,1,90,1,20,left,right,right,1,0,1,0.132,10,1,793,1553,1.5530000000000002,3.003,0
5c8d2f74e775150016db3700,20,female,0,2,96,Clear_not_profit_side,1,90,1,20,left,right,right,1,0,1,0.141,10,1,793,1553,1.5530000000000002,3.003,0
5c91c01129b394001a4e473b,23,male,1,1,2,Clear_not_profit_side,3,0,0,0,right,left,left,1,2,1,0.552,8,1,137,283,0.28300000000000003,1.733,0
5c91c01129b394001a4e473b,23,male,1,1,4,Ambigous_left,3,0,0,0,right,left,left,1,2,1,0.294,8,1,137,283,0.28300000000000003,1.733,0
5c91c01129b394001a4e473b,23,male,1,1,6,Clear_not_profit_side,3,0,0,0,right,left,left,1,2,1,0.222,8,1,137,283,0.28300000000000003,1.733,0
5c91c01129b394001a4e473b,23,male,1,1,7,Ambigous_left,3,0,0,0,right,left,right,2,1,0,0.502,8,1,137,283,0.28300000000000003,1.733,1
5c91c01129b394001a4e473b,23,male,1,1,8,Clear_not_profit_side,3,0,0,0,right,left,left,1,2,1,0.16699999999999998,8,1,137,283,0.28300000000000003,1.733,0
5c91c01129b394001a4e473b,23,male,1,1,9,Clear_not_profit_side,3,0,0,0,right,left,left,1,2,1,0.222,8,1,137,283,0.28300000000000003,1.733,0
5c91c01129b394001a4e473b,23,male,1,1,11,Clear_not_profit_side,3,0,0,0,right,left,left,1,2,1,0.25,8,1,137,283,0.28300000000000003,1.733,0
5c91c01129b394001a4e473b,23,male,1,1,12,Clear_not_profit_side,3,0,0,0,right,left,left,1,2,1,0.162,8,1,137,283,0.28300000000000003,1.733,0
5c91c01129b394001a4e473b,23,male,1,1,13,Clear_not_profit_side,3,0,0,0,right,left,left,1,2,1,0.252,8,1,137,283,0.28300000000000003,1.733,0
5c91c01129b394001a4e473b,23,male,1,1,14,Ambigous_left,3,0,0,0,right,left,left,1,2,1,0.728,8,1,137,283,0.28300000000000003,1.733,0
5c91c01129b394001a4e473b,23,male,1,1,15,Clear_not_profit_side,3,0,0,0,right,left,left,1,2,1,0.128,8,1,137,283,0.28300000000000003,1.733,0
5c91c01129b394001a4e473b,23,male,1,1,20,Ambigous_left,3,0,0,0,right,left,left,1,2,1,0.189,8,1,137,283,0.28300000000000003,1.733,0
5c91c01129b394001a4e473b,23,male,1,1,22,Clear_not_profit_side,3,0,0,0,right,left,left,1,2,1,0.152,8,1,137,283,0.28300000000000003,1.733,0
5c91c01129b394001a4e473b,23,male,1,1,23,Clear_not_profit_side,3,0,0,0,right,left,left,1,2,1,0.127,8,1,137,283,0.28300000000000003,1.733,0
5c91c01129b394001a4e473b,23,male,1,1,24,Ambigous_left,3,0,0,0,right,left,left,1,2,1,0.158,8,1,137,283,0.28300000000000003,1.733,0
5c91c01129b394001a4e473b,23,male,1,1,26,Ambigous_left,3,0,0,0,right,left,left,1,2,1,0.119,8,1,137,283,0.28300000000000003,1.733,0
5c91c01129b394001a4e473b,23,male,1,1,27,Ambigous_left,3,0,0,0,right,left,left,1,2,1,0.118,8,1,137,283,0.28300000000000003,1.733,0
5c91c01129b394001a4e473b,23,male,1,1,28,Clear_not_profit_side,3,0,0,0,right,left,left,1,2,1,0.122,8,1,137,283,0.28300000000000003,1.733,0
5c91c01129b394001a4e473b,23,male,1,1,30,Clear_not_profit_side,3,0,0,0,right,left,left,1,2,1,0.133,8,1,137,283,0.28300000000000003,1.733,0
5c91c01129b394001a4e473b,23,male,1,1,35,Clear_not_profit_side,3,0,0,0,right,left,left,1,2,1,0.131,8,1,137,283,0.28300000000000003,1.733,0
5c91c01129b394001a4e473b,23,male,1,1,39,Ambigous_left,3,0,0,0,right,left,left,1,2,1,0.132,8,1,137,283,0.28300000000000003,1.733,0
5c91c01129b394001a4e473b,23,male,1,1,40,Ambigous_left,3,0,0,0,right,left,left,1,2,1,0.343,8,1,137,283,0.28300000000000003,1.733,0
5c91c01129b394001a4e473b,23,male,1,1,41,Ambigous_left,3,0,0,0,right,left,left,1,2,1,0.263,8,1,137,283,0.28300000000000003,1.733,0
5c91c01129b394001a4e473b,23,male,1,1,43,Ambigous_left,3,0,0,0,right,left,left,1,2,1,0.156,8,1,137,283,0.28300000000000003,1.733,0
5c91c01129b394001a4e473b,23,male,1,1,44,Ambigous_left,3,0,0,0,right,left,left,1,2,1,0.4970000000000001,8,1,137,283,0.28300000000000003,1.733,0
5c91c01129b394001a4e473b,23,male,1,1,48,Clear_not_profit_side,3,0,0,0,right,left,left,1,2,1,0.196,8,1,137,283,0.28300000000000003,1.733,0
5c91c01129b394001a4e473b,23,male,1,1,49,Ambigous_left,3,0,0,0,right,left,right,2,1,0,0.591,8,1,137,283,0.28300000000000003,1.733,1
5c91c01129b394001a4e473b,23,male,1,1,53,Clear_not_profit_side,3,0,0,0,right,left,left,1,2,1,0.187,8,1,137,283,0.28300000000000003,1.733,0
5c91c01129b394001a4e473b,23,male,1,1,55,Ambigous_left,3,0,0,0,right,left,left,1,2,1,0.16399999999999998,8,1,137,283,0.28300000000000003,1.733,0
5c91c01129b394001a4e473b,23,male,1,1,56,Clear_not_profit_side,3,0,0,0,right,left,left,1,2,1,0.141,8,1,137,283,0.28300000000000003,1.733,0
5c91c01129b394001a4e473b,23,male,1,1,57,Clear_not_profit_side,3,0,0,0,right,left,left,1,2,1,0.133,8,1,137,283,0.28300000000000003,1.733,0
5c91c01129b394001a4e473b,23,male,1,1,60,Clear_not_profit_side,3,0,0,0,right,left,left,1,2,1,0.161,8,1,137,283,0.28300000000000003,1.733,0
5c91c01129b394001a4e473b,23,male,1,1,63,Clear_not_profit_side,3,0,0,0,right,left,left,1,2,1,0.15,8,1,137,283,0.28300000000000003,1.733,0
5c91c01129b394001a4e473b,23,male,1,1,64,Clear_not_profit_side,3,0,0,0,right,left,left,1,2,1,0.128,8,1,137,283,0.28300000000000003,1.733,0
5c91c01129b394001a4e473b,23,male,1,1,65,Ambigous_left,3,0,0,0,right,left,left,1,2,1,0.134,8,1,137,283,0.28300000000000003,1.733,0
5c91c01129b394001a4e473b,23,male,1,1,67,Clear_not_profit_side,3,0,0,0,right,left,left,1,2,1,0.139,8,1,137,283,0.28300000000000003,1.733,0
5c91c01129b394001a4e473b,23,male,1,1,68,Clear_not_profit_side,3,0,0,0,right,left,left,1,2,1,0.093,8,1,137,283,0.28300000000000003,1.733,0
5c91c01129b394001a4e473b,23,male,1,1,69,Ambigous_left,3,0,0,0,right,left,left,1,2,1,0.097,8,1,137,283,0.28300000000000003,1.733,0
5c91c01129b394001a4e473b,23,male,1,1,71,Clear_not_profit_side,3,0,0,0,right,left,left,1,2,1,0.198,8,1,137,283,0.28300000000000003,1.733,0
5c91c01129b394001a4e473b,23,male,1,1,73,Ambigous_left,3,0,0,0,right,left,left,1,2,1,0.274,8,1,137,283,0.28300000000000003,1.733,0
5c91c01129b394001a4e473b,23,male,1,1,74,Clear_not_profit_side,3,0,0,0,right,left,left,1,2,1,0.136,8,1,137,283,0.28300000000000003,1.733,0
5c91c01129b394001a4e473b,23,male,1,1,75,Clear_not_profit_side,3,0,0,0,right,left,left,1,2,1,0.118,8,1,137,283,0.28300000000000003,1.733,0
5c91c01129b394001a4e473b,23,male,1,1,77,Clear_not_profit_side,3,0,0,0,right,left,left,1,2,1,0.121,8,1,137,283,0.28300000000000003,1.733,0
5c91c01129b394001a4e473b,23,male,1,1,81,Clear_not_profit_side,3,0,0,0,right,left,left,1,2,1,0.145,8,1,137,283,0.28300000000000003,1.733,0
